thisN,thisTrialN,thisRepN,ID,Weight,Stimulus,TargetType,CorrectResponse,StimType,BlockType,response.keys,response.corr,TargetStimulus,BlockLoop_Run1.thisRepN,BlockLoop_Run1.thisTrialN,BlockLoop_Run1.thisN,BlockLoop_Run1.thisIndex,TrialLoop_Run1.thisRepN,TrialLoop_Run1.thisTrialN,TrialLoop_Run1.thisN,TrialLoop_Run1.thisIndex,thisRow.t,notes,TitlePage.started,Continue.started,NbackTitle.started,TitlePage.stopped,Continue.keys,Continue.rt,Continue.duration,Instructions.started,Continue_2.started,Instruction.started,Instructions.stopped,Continue_2.keys,Continue_2.rt,Continue_2.duration,Instructions_2.started,Continue_3.started,Instruction_2.started,Target.started,TargetImage.started,Instructions_2.stopped,Continue_3.keys,Continue_3.rt,Continue_3.duration,Instructions_3.started,Continue_4.started,Instruction_3.started,Green_Border.started,Image_2Back.started,Image_1Back.started,Image_ToMatch.started,LEFTSIDESCREEN_CAPTION.started,RIGHTSIDESCREEN_CAPTION.started,Instructions_3.stopped,Continue_4.keys,Continue_4.rt,Continue_4.duration,Instructions_4.started,Continue_5.started,Instruction_4.started,Instructions_4.stopped,Continue_5.keys,Continue_5.rt,Continue_5.duration,Instructions_5.started,Continue_6.started,Instruction_5.started,Instructions_5.stopped,Continue_6.keys,Continue_6.rt,Continue_6.duration,Waiting4Scanner.started,Continue_7.started,Scanner_Instruction.started,Waiting4Scanner.stopped,Continue_7.keys,Continue_7.rt,Continue_7.duration,CueFix_Run1.started,Cue_Fix.started,CueFix_Run1.stopped,Cue2Back.started,Cue_2Back.started,Cue2Back.stopped,Cue0Back.started,Cue0Back.stopped,Stim.started,StimulusImage.started,LeftScreenResponse.started,RightScreenResponse.started,response.started,Stim.stopped,TrialLoop_Run1.response.keys,TrialLoop_Run1.response.corr,correctKey,pressedKey,accuracy,RT,date,time,version,run,block,id,stimulus,stimType,Fix.started,End_Fix.started,Fix.stopped,StimulusImage.stopped,LeftScreenResponse.stopped,RightScreenResponse.stopped,response.stopped,End_Fix.stopped,EndBlock_Run1.started,EndBlock_Run1.stopped,Cue_Target.started,Cue_TargetImage.started,Cue_Fix.stopped,Fix15Sec.started,Fix_15_Sec.started,Fix15Sec.stopped,Fix5Sec.started,Fix_5_Sec.started,Fix5Sec.stopped,Instructions_6.started,Continue_8.started,Instruction_6.started,Please enter the Subject ID:,Please enter the Session Number:,Enter subject's handedness:,Please select version:,date,expName,expVersion,psychopyVersion,frameRate,expStart,
,,,,,,,,,,,,,,,,,,,,,,,0.015975166112184525,0.05534287542104721,0.05534287542104721,1.5444540828466415,space,1.2121503734961152,None,,,,,,,,,,,,,,,,,,,,,,,,,,,,,,,,,,,,,,,,,,,,,,,,,,,,,,,,,,,,,,,,,,,,,,,2026-01-20_12h22.45.472,,,,,,,,,,,,,,,,,,,,,,,,,,,,,,543211,1,Right,1,2026-01-20_12h22.45.472,EmoNback_Behavioral,,2025.1.1,90.63091634475249,2026-01-20 12h23.01.158604 -0600,
,,,,,,,,,,,,,,,,,,,,,,,,,,,,,,1.5457077082246542,1.562613875605166,1.562613875605166,2.1710400003939867,space,0.6043070405721664,None,,,,,,,,,,,,,,,,,,,,,,,,,,,,,,,,,,,,,,,,,,,,,,,,,,,,,,,,,,,,,,,,2026-01-20_12h22.45.472,,,,,,,,,,,,,,,,,,,,,,,,,,,,,,543211,1,Right,1,2026-01-20_12h22.45.472,EmoNback_Behavioral,,2025.1.1,90.63091634475249,2026-01-20 12h23.01.158604 -0600,
,,,,,,,,,,,,,,,,,,,,,,,,,,,,,,,,,,,,,2.1747659584507346,2.2139040408656,2.2139040408656,2.2139040408656,2.2139040408656,2.692787458188832,space,0.4711514161899686,None,,,,,,,,,,,,,,,,,,,,,,,,,,,,,,,,,,,,,,,,,,,,,,,,,,,,,,,2026-01-20_12h22.45.472,,,,,,,,,,,,,,,,,,,,,,,,,,,,,,543211,1,Right,1,2026-01-20_12h22.45.472,EmoNback_Behavioral,,2025.1.1,90.63091634475249,2026-01-20 12h23.01.158604 -0600,
,,,,,,,,,,,,,,,,,,,,,,,,,,,,,,,,,,,,,,,,,,,,,,2.695843791589141,2.7563882507383823,2.7563882507383823,2.7563882507383823,2.7563882507383823,2.7563882507383823,2.7563882507383823,2.7563882507383823,2.7563882507383823,3.1337452083826065,space,0.3664107909426093,None,,,,,,,,,,,,,,,,,,,,,,,,,,,,,,,,,,,,,,,,,,2026-01-20_12h22.45.472,,,,,,,,,,,,,,,,,,,,,,,,,,,,,,543211,1,Right,1,2026-01-20_12h22.45.472,EmoNback_Behavioral,,2025.1.1,90.63091634475249,2026-01-20 12h23.01.158604 -0600,
,,,,,,,,,,,,,,,,,,,,,,,,,,,,,,,,,,,,,,,,,,,,,,,,,,,,,,,,,,,3.1355109587311745,3.1484397500753403,3.1484397500753403,3.5368125000968575,space,0.3809467488899827,None,,,,,,,,,,,,,,,,,,,,,,,,,,,,,,,,,,,2026-01-20_12h22.45.472,,,,,,,,,,,,,,,,,,,,,,,,,,,,,,543211,1,Right,1,2026-01-20_12h22.45.472,EmoNback_Behavioral,,2025.1.1,90.63091634475249,2026-01-20 12h23.01.158604 -0600,
,,,,,,,,,,,,,,,,,,,,,,,,,,,,,,,,,,,,,,,,,,,,,,,,,,,,,,,,,,,,,,,,,,3.539083916693926,3.554686250165105,3.554686250165105,3.895877916365862,space,0.33405112382024527,None,,,,,,,,,,,,,,,,,,,,,,,,,,,,2026-01-20_12h22.45.472,,,,,,,,,,,,,,,,,,,,,,,,,,,,,,543211,1,Right,1,2026-01-20_12h22.45.472,EmoNback_Behavioral,,2025.1.1,90.63091634475249,2026-01-20 12h23.01.158604 -0600,
,,,,,,,,,,,,,,,,,,,,,,,,,,,,,,,,,,,,,,,,,,,,,,,,,,,,,,,,,,,,,,,,,,,,,,,,,3.897803916595876,3.9129864163696766,3.9129864163696766,10.004222958348691,t,6.084391665644944,None,,,,,,,,,,,,,,,,,,,,,2026-01-20_12h22.45.472,,,,,,,,,,,,,,,,,,,,,,,,,,,,,,543211,1,Right,1,2026-01-20_12h22.45.472,EmoNback_Behavioral,,2025.1.1,90.63091634475249,2026-01-20 12h23.01.158604 -0600,
0,0,0,1,1,VM Stimuli/23M_HO.bmp,nonlure,nontarget,PosFace,2-Back,None,0,,0,0,0,0,0,0,0,0,10.554709957912564,,,,,,,,,,,,,,,,,,,,,,,,,,,,,,,,,,,,,,,,,,,,,,,,,,,,,,,,,,,10.006529625505209,10.022382291033864,10.513831041753292,10.542884791269898,10.554709957912564,12.999294958077371,13.042718625627458,13.04278083331883,13.04668179154396,13.060143874958158,13.060143874958158,13.060143874958158,13.060143874958158,15.045162833295763,None,0,2,NA,NA,NA,2026-01-20_12h22.45.472,12:23:16,1,1,0,1,VM Stimuli/23M_HO.bmp,PosFace,,,,,,,,,,,,,,,,,,,,,,,543211,1,Right,1,2026-01-20_12h22.45.472,EmoNback_Behavioral,,2025.1.1,90.63091634475249,2026-01-20 12h23.01.158604 -0600,
0,0,0,1,1,VM Stimuli/23M_HO.bmp,nonlure,nontarget,PosFace,2-Back,None,0,,0,0,0,0,0,0,0,0,,,,,,,,,,,,,,,,,,,,,,,,,,,,,,,,,,,,,,,,,,,,,,,,,,,,,,,,,,,,,,,,,,,,,,,,,,,,,,,,2026-01-20_12h22.45.472,,,,,,,,15.045982208102942,15.057796833105385,15.553317333571613,,,,,,,,,,,,,,,,,,,,543211,1,Right,1,2026-01-20_12h22.45.472,EmoNback_Behavioral,,2025.1.1,90.63091634475249,2026-01-20 12h23.01.158604 -0600,
1,1,0,2,1,VM Stimuli/12F_HO.bmp,nonlure,nontarget,PosFace,2-Back,None,0,,0,0,0,0,0,1,1,1,15.611933375708759,,,,,,,,,,,,,,,,,,,,,,,,,,,,,,,,,,,,,,,,,,,,,,,,,,,,,,,,,,,,,,15.554219208657742,,15.554269958287477,15.596585708670318,15.596626666374505,15.600019208155572,15.611933375708759,15.611933375708759,15.611933375708759,15.611933375708759,17.601500333286822,None,0,2,NA,NA,NA,2026-01-20_12h22.45.472,12:23:18,1,1,0,2,VM Stimuli/12F_HO.bmp,PosFace,,,,,,,,,,,,,,,,,,,,,,,543211,1,Right,1,2026-01-20_12h22.45.472,EmoNback_Behavioral,,2025.1.1,90.63091634475249,2026-01-20 12h23.01.158604 -0600,
1,1,0,2,1,VM Stimuli/12F_HO.bmp,nonlure,nontarget,PosFace,2-Back,None,0,,0,0,0,0,0,1,1,1,,,,,,,,,,,,,,,,,,,,,,,,,,,,,,,,,,,,,,,,,,,,,,,,,,,,,,,,,,,,,,,,,,,,,,,,,,,,,,,,2026-01-20_12h22.45.472,,,,,,,,17.602129249833524,17.611799250356853,18.09876637533307,,,,,,,,,,,,,,,,,,,,543211,1,Right,1,2026-01-20_12h22.45.472,EmoNback_Behavioral,,2025.1.1,90.63091634475249,2026-01-20 12h23.01.158604 -0600,
2,2,0,3,1,VM Stimuli/AF02_HO.bmp,nonlure,nontarget,PosFace,2-Back,None,0,,0,0,0,0,0,2,2,2,18.151278874836862,,,,,,,,,,,,,,,,,,,,,,,,,,,,,,,,,,,,,,,,,,,,,,,,,,,,,,,,,,,,,,18.099928916431963,,18.099990958347917,18.133550500497222,18.133595125749707,18.138159666210413,18.151278874836862,18.151278874836862,18.151278874836862,18.151278874836862,20.14450095873326,None,0,2,NA,NA,NA,2026-01-20_12h22.45.472,12:23:21,1,1,0,3,VM Stimuli/AF02_HO.bmp,PosFace,,,,,,,,,,,,,,,,,,,,,,,543211,1,Right,1,2026-01-20_12h22.45.472,EmoNback_Behavioral,,2025.1.1,90.63091634475249,2026-01-20 12h23.01.158604 -0600,
2,2,0,3,1,VM Stimuli/AF02_HO.bmp,nonlure,nontarget,PosFace,2-Back,None,0,,0,0,0,0,0,2,2,2,,,,,,,,,,,,,,,,,,,,,,,,,,,,,,,,,,,,,,,,,,,,,,,,,,,,,,,,,,,,,,,,,,,,,,,,,,,,,,,,2026-01-20_12h22.45.472,,,,,,,,20.14526033308357,20.156875666230917,20.643464375287294,,,,,,,,,,,,,,,,,,,,543211,1,Right,1,2026-01-20_12h22.45.472,EmoNback_Behavioral,,2025.1.1,90.63091634475249,2026-01-20 12h23.01.158604 -0600,
3,3,0,4,1,VM Stimuli/12F_HO.bmp,target,Target,PosFace,2-Back,None,0,,0,0,0,0,0,3,3,3,20.69035958312452,,,,,,,,,,,,,,,,,,,,,,,,,,,,,,,,,,,,,,,,,,,,,,,,,,,,,,,,,,,,,,20.64469433296472,,20.64475716650486,20.674816749989986,20.674866958521307,20.677547249943018,20.69035958312452,20.69035958312452,20.69035958312452,20.69035958312452,22.674365791492164,None,0,1,NA,NA,NA,2026-01-20_12h22.45.472,12:23:23,1,1,0,4,VM Stimuli/12F_HO.bmp,PosFace,,,,22.68502341583371,22.68502341583371,22.68502341583371,22.68502341583371,,,,,,,,,,,,,,,,543211,1,Right,1,2026-01-20_12h22.45.472,EmoNback_Behavioral,,2025.1.1,90.63091634475249,2026-01-20 12h23.01.158604 -0600,
3,3,0,4,1,VM Stimuli/12F_HO.bmp,target,Target,PosFace,2-Back,None,0,,0,0,0,0,0,3,3,3,,,,,,,,,,,,,,,,,,,,,,,,,,,,,,,,,,,,,,,,,,,,,,,,,,,,,,,,,,,,,,,,,,,,,,,,,,,,,,,,2026-01-20_12h22.45.472,,,,,,,,22.675010791048408,22.68502341583371,23.170122583396733,,,,,23.216746957972646,,,,,,,,,,,,,,,543211,1,Right,1,2026-01-20_12h22.45.472,EmoNback_Behavioral,,2025.1.1,90.63091634475249,2026-01-20 12h23.01.158604 -0600,
4,4,0,5,1,VM Stimuli/WM011_HO.bmp,nonlure,nontarget,PosFace,2-Back,None,0,,0,0,0,0,0,4,4,4,23.216746957972646,,,,,,,,,,,,,,,,,,,,,,,,,,,,,,,,,,,,,,,,,,,,,,,,,,,,,,,,,,,,,,23.170967791229486,,23.17101529147476,23.199209665879607,23.199260791763663,23.20384724996984,23.216746957972646,23.216746957972646,23.216746957972646,23.216746957972646,25.219268958084285,None,0,2,NA,NA,NA,2026-01-20_12h22.45.472,12:23:26,1,1,0,5,VM Stimuli/WM011_HO.bmp,PosFace,,,,,,,,,,,,,,,,,,,,,,,543211,1,Right,1,2026-01-20_12h22.45.472,EmoNback_Behavioral,,2025.1.1,90.63091634475249,2026-01-20 12h23.01.158604 -0600,
4,4,0,5,1,VM Stimuli/WM011_HO.bmp,nonlure,nontarget,PosFace,2-Back,None,0,,0,0,0,0,0,4,4,4,,,,,,,,,,,,,,,,,,,,,,,,,,,,,,,,,,,,,,,,,,,,,,,,,,,,,,,,,,,,,,,,,,,,,,,,,,,,,,,,2026-01-20_12h22.45.472,,,,,,,,25.219896333292127,25.23668225016445,25.703275250270963,,,,,,,,,,,,,,,,,,,,543211,1,Right,1,2026-01-20_12h22.45.472,EmoNback_Behavioral,,2025.1.1,90.63091634475249,2026-01-20 12h23.01.158604 -0600,
5,5,0,6,1,VM Stimuli/HM04_HO.bmp,nonlure,nontarget,PosFace,2-Back,None,0,,0,0,0,0,0,5,5,5,25.75131675042212,,,,,,,,,,,,,,,,,,,,,,,,,,,,,,,,,,,,,,,,,,,,,,,,,,,,,,,,,,,,,,25.7043569162488,,25.704417875036597,25.733692916110158,25.733743083663285,25.73840233311057,25.75131675042212,25.75131675042212,25.75131675042212,25.75131675042212,27.735978833399713,None,0,2,NA,NA,NA,2026-01-20_12h22.45.472,12:23:28,1,1,0,6,VM Stimuli/HM04_HO.bmp,PosFace,,,,,,,,,,,,,,,,,,,,,,,543211,1,Right,1,2026-01-20_12h22.45.472,EmoNback_Behavioral,,2025.1.1,90.63091634475249,2026-01-20 12h23.01.158604 -0600,
5,5,0,6,1,VM Stimuli/HM04_HO.bmp,nonlure,nontarget,PosFace,2-Back,None,0,,0,0,0,0,0,5,5,5,,,,,,,,,,,,,,,,,,,,,,,,,,,,,,,,,,,,,,,,,,,,,,,,,,,,,,,,,,,,,,,,,,,,,,,,,,,,,,,,2026-01-20_12h22.45.472,,,,,,,,27.73668000008911,27.746824082918465,28.235176041722298,,,,,,,,,,,,,,,,,,,,543211,1,Right,1,2026-01-20_12h22.45.472,EmoNback_Behavioral,,2025.1.1,90.63091634475249,2026-01-20 12h23.01.158604 -0600,
6,6,0,7,1,VM Stimuli/AF02_HO.bmp,lure,nontarget,PosFace,2-Back,None,0,,0,0,0,0,0,6,6,6,28.28284200001508,,,,,,,,,,,,,,,,,,,,,,,,,,,,,,,,,,,,,,,,,,,,,,,,,,,,,,,,,,,,,,28.236356125213206,,28.236419457942247,28.265305208042264,28.265355207957327,28.269838000647724,28.28284200001508,28.28284200001508,28.28284200001508,28.28284200001508,30.269220625050366,None,0,2,NA,NA,NA,2026-01-20_12h22.45.472,12:23:31,1,1,0,7,VM Stimuli/AF02_HO.bmp,PosFace,,,,,,,,,,,,,,,,,,,,,,,543211,1,Right,1,2026-01-20_12h22.45.472,EmoNback_Behavioral,,2025.1.1,90.63091634475249,2026-01-20 12h23.01.158604 -0600,
6,6,0,7,1,VM Stimuli/AF02_HO.bmp,lure,nontarget,PosFace,2-Back,None,0,,0,0,0,0,0,6,6,6,,,,,,,,,,,,,,,,,,,,,,,,,,,,,,,,,,,,,,,,,,,,,,,,,,,,,,,,,,,,,,,,,,,,,,,,,,,,,,,,2026-01-20_12h22.45.472,,,,,,,,30.26996091660112,30.286619833670557,30.773414875380695,,,,,,,,,,,,,,,,,,,,543211,1,Right,1,2026-01-20_12h22.45.472,EmoNback_Behavioral,,2025.1.1,90.63091634475249,2026-01-20 12h23.01.158604 -0600,
7,7,0,8,1,VM Stimuli/BF037_HO.bmp,nonlure,nontarget,PosFace,2-Back,None,0,,0,0,0,0,0,7,7,7,30.820428041741252,,,,,,,,,,,,,,,,,,,,,,,,,,,,,,,,,,,,,,,,,,,,,,,,,,,,,,,,,,,,,,30.774455583654344,,30.77450608368963,30.802812333218753,30.80287720821798,30.807628416456282,30.820428041741252,30.820428041741252,30.820428041741252,30.820428041741252,32.80304425023496,None,0,2,NA,NA,NA,2026-01-20_12h22.45.472,12:23:33,1,1,0,8,VM Stimuli/BF037_HO.bmp,PosFace,,,,,,,,,,,,,,,,,,,,,,,543211,1,Right,1,2026-01-20_12h22.45.472,EmoNback_Behavioral,,2025.1.1,90.63091634475249,2026-01-20 12h23.01.158604 -0600,
7,7,0,8,1,VM Stimuli/BF037_HO.bmp,nonlure,nontarget,PosFace,2-Back,None,0,,0,0,0,0,0,7,7,7,,,,,,,,,,,,,,,,,,,,,,,,,,,,,,,,,,,,,,,,,,,,,,,,,,,,,,,,,,,,,,,,,,,,,,,,,,,,,,,,2026-01-20_12h22.45.472,,,,,,,,32.80354279093444,32.81320954114199,33.29743520822376,,,,,33.34284604154527,,,,,,,,,,,,,,,543211,1,Right,1,2026-01-20_12h22.45.472,EmoNback_Behavioral,,2025.1.1,90.63091634475249,2026-01-20 12h23.01.158604 -0600,
8,8,0,9,1,VM Stimuli/WM011_HO.bmp,lure,nontarget,PosFace,2-Back,None,0,,0,0,0,0,0,8,8,8,33.34284604154527,,,,,,,,,,,,,,,,,,,,,,,,,,,,,,,,,,,,,,,,,,,,,,,,,,,,,,,,,,,,,,33.29840041603893,,33.298448875546455,33.326290666125715,33.32634000014514,33.33006300032139,33.34284604154527,33.34284604154527,33.34284604154527,33.34284604154527,35.330600750632584,None,0,2,NA,NA,NA,2026-01-20_12h22.45.472,12:23:36,1,1,0,9,VM Stimuli/WM011_HO.bmp,PosFace,,,,,,,,,,,,,,,,,,,,,,,543211,1,Right,1,2026-01-20_12h22.45.472,EmoNback_Behavioral,,2025.1.1,90.63091634475249,2026-01-20 12h23.01.158604 -0600,
8,8,0,9,1,VM Stimuli/WM011_HO.bmp,lure,nontarget,PosFace,2-Back,None,0,,0,0,0,0,0,8,8,8,,,,,,,,,,,,,,,,,,,,,,,,,,,,,,,,,,,,,,,,,,,,,,,,,,,,,,,,,,,,,,,,,,,,,,,,,,,,,,,,2026-01-20_12h22.45.472,,,,,,,,35.33132329117507,35.34154487494379,35.83435312565416,,,,,,,,,,,,,,,,,,,,543211,1,Right,1,2026-01-20_12h22.45.472,EmoNback_Behavioral,,2025.1.1,90.63091634475249,2026-01-20 12h23.01.158604 -0600,
9,9,0,10,1,VM Stimuli/BF037_HO.bmp,target,Target,PosFace,2-Back,None,0,,0,0,0,0,0,9,9,9,35.88004037551582,,,,,,,,,,,,,,,,,,,,,,,,,,,,,,,,,,,,,,,,,,,,,,,,,,,,,,,,,,,,,,35.83536229096353,,35.83542337547988,35.86415816657245,35.86420733295381,35.86696716584265,35.88004037551582,35.88004037551582,35.88004037551582,35.88004037551582,37.86829079128802,None,0,1,NA,NA,NA,2026-01-20_12h22.45.472,12:23:39,1,1,0,10,VM Stimuli/BF037_HO.bmp,PosFace,,,,,,,,,,,,,,,,,,,,,,,543211,1,Right,1,2026-01-20_12h22.45.472,EmoNback_Behavioral,,2025.1.1,90.63091634475249,2026-01-20 12h23.01.158604 -0600,
9,9,0,10,1,VM Stimuli/BF037_HO.bmp,target,Target,PosFace,2-Back,None,0,,0,0,0,0,0,9,9,9,,,,,,,,,,,,,,,,,,,,,,,,,,,,,,,,,,,,,,,,,,,,,,,,,,,,,,,,,,,,,,,,,,,,,,,,,,,,,,,,2026-01-20_12h22.45.472,,,,,,,,37.86906387563795,37.881053750403225,38.368060333654284,,,,,,,,,,,,,,,,,,,,543211,1,Right,1,2026-01-20_12h22.45.472,EmoNback_Behavioral,,2025.1.1,90.63091634475249,2026-01-20 12h23.01.158604 -0600,
0,0,0,1,1,VM Stimuli/LF206_NC.bmp,nonlure,nontarget,NeutFace,0-Back,None,0,VM Stimuli/AF218_NC.bmp,1,0,1,0,0,0,0,0,38.920114249922335,,,,,,,,,,,,,,,,,,,,,,,,,,,,,,,,,,,,,,,,,,,,,,,,,,,,,,,,,,,38.38451670855284,38.395632833242416,38.885149541310966,38.896169875748456,,38.89622750040144,38.90764558315277,41.379481291398406,41.38642395846546,41.400081041269004,41.400081041269004,41.400081041269004,41.400081041269004,43.386369165964425,None,0,2,NA,NA,NA,2026-01-20_12h22.45.472,12:23:44,1,1,1,1,VM Stimuli/LF206_NC.bmp,NeutFace,,,,43.39778779167682,43.39778779167682,43.39778779167682,43.39778779167682,,38.37307312525809,38.37318762484938,38.920114249922335,38.920114249922335,,,,,,,,,,,543211,1,Right,1,2026-01-20_12h22.45.472,EmoNback_Behavioral,,2025.1.1,90.63091634475249,2026-01-20 12h23.01.158604 -0600,
0,0,0,1,1,VM Stimuli/LF206_NC.bmp,nonlure,nontarget,NeutFace,0-Back,None,0,VM Stimuli/AF218_NC.bmp,1,0,1,0,0,0,0,0,,,,,,,,,,,,,,,,,,,,,,,,,,,,,,,,,,,,,,,,,,,,,,,,,,,,,,,,,,,,,,,,,,,,,,,,,,,,,,,,2026-01-20_12h22.45.472,,,,,,,,43.38749179150909,43.39778779167682,43.88646658323705,,,,,43.910205541178584,,,,,,,,,,,,,,,543211,1,Right,1,2026-01-20_12h22.45.472,EmoNback_Behavioral,,2025.1.1,90.63091634475249,2026-01-20 12h23.01.158604 -0600,
1,1,0,2,1,VM Stimuli/AF218_NC.bmp,target,Target,NeutFace,0-Back,None,0,VM Stimuli/AF218_NC.bmp,1,0,1,0,0,1,1,1,43.910205541178584,,,,,,,,,,,,,,,,,,,,,,,,,,,,,,,,,,,,,,,,,,,,,,,,,,,,,,,,,,,,,,43.88755341619253,,43.887601166032255,43.89197445847094,43.89203391596675,43.89563825074583,43.910205541178584,43.910205541178584,43.910205541178584,43.910205541178584,45.89351945836097,None,0,1,NA,NA,NA,2026-01-20_12h22.45.472,12:23:47,1,1,1,2,VM Stimuli/AF218_NC.bmp,NeutFace,,,,,,,,,,,,,,,,,,,,,,,543211,1,Right,1,2026-01-20_12h22.45.472,EmoNback_Behavioral,,2025.1.1,90.63091634475249,2026-01-20 12h23.01.158604 -0600,
1,1,0,2,1,VM Stimuli/AF218_NC.bmp,target,Target,NeutFace,0-Back,None,0,VM Stimuli/AF218_NC.bmp,1,0,1,0,0,1,1,1,,,,,,,,,,,,,,,,,,,,,,,,,,,,,,,,,,,,,,,,,,,,,,,,,,,,,,,,,,,,,,,,,,,,,,,,,,,,,,,,2026-01-20_12h22.45.472,,,,,,,,45.89435420837253,45.905971500091255,46.39788787532598,,,,,,,,,,,,,,,,,,,,543211,1,Right,1,2026-01-20_12h22.45.472,EmoNback_Behavioral,,2025.1.1,90.63091634475249,2026-01-20 12h23.01.158604 -0600,
2,2,0,3,1,VM Stimuli/42M_NC.bmp,nonlure,nontarget,NeutFace,0-Back,None,0,VM Stimuli/AF218_NC.bmp,1,0,1,0,0,2,2,2,46.42090312484652,,,,,,,,,,,,,,,,,,,,,,,,,,,,,,,,,,,,,,,,,,,,,,,,,,,,,,,,,,,,,,46.39898537565023,,46.399036166258156,46.40259608346969,46.40265329089016,46.40720983315259,46.42090312484652,46.42090312484652,46.42090312484652,46.42090312484652,48.40683541633189,None,0,2,NA,NA,NA,2026-01-20_12h22.45.472,12:23:49,1,1,1,3,VM Stimuli/42M_NC.bmp,NeutFace,,,,,,,,,,,,,,,,,,,,,,,543211,1,Right,1,2026-01-20_12h22.45.472,EmoNback_Behavioral,,2025.1.1,90.63091634475249,2026-01-20 12h23.01.158604 -0600,
2,2,0,3,1,VM Stimuli/42M_NC.bmp,nonlure,nontarget,NeutFace,0-Back,None,0,VM Stimuli/AF218_NC.bmp,1,0,1,0,0,2,2,2,,,,,,,,,,,,,,,,,,,,,,,,,,,,,,,,,,,,,,,,,,,,,,,,,,,,,,,,,,,,,,,,,,,,,,,,,,,,,,,,2026-01-20_12h22.45.472,,,,,,,,48.4075387082994,48.417904540896416,48.90600191615522,,,,,,,,,,,,,,,,,,,,543211,1,Right,1,2026-01-20_12h22.45.472,EmoNback_Behavioral,,2025.1.1,90.63091634475249,2026-01-20 12h23.01.158604 -0600,
3,3,0,4,1,VM Stimuli/BM09_NC.bmp,nonlure,nontarget,NeutFace,0-Back,None,0,VM Stimuli/AF218_NC.bmp,1,0,1,0,0,3,3,3,48.929793583229184,,,,,,,,,,,,,,,,,,,,,,,,,,,,,,,,,,,,,,,,,,,,,,,,,,,,,,,,,,,,,,48.90697237569839,,48.907019208185375,48.910144958645105,48.91021537501365,48.915391250513494,48.929793583229184,48.929793583229184,48.929793583229184,48.929793583229184,50.9151309998706,None,0,2,NA,NA,NA,2026-01-20_12h22.45.472,12:23:52,1,1,1,4,VM Stimuli/BM09_NC.bmp,NeutFace,,,,,,,,,,,,,,,,,,,,,,,543211,1,Right,1,2026-01-20_12h22.45.472,EmoNback_Behavioral,,2025.1.1,90.63091634475249,2026-01-20 12h23.01.158604 -0600,
3,3,0,4,1,VM Stimuli/BM09_NC.bmp,nonlure,nontarget,NeutFace,0-Back,None,0,VM Stimuli/AF218_NC.bmp,1,0,1,0,0,3,3,3,,,,,,,,,,,,,,,,,,,,,,,,,,,,,,,,,,,,,,,,,,,,,,,,,,,,,,,,,,,,,,,,,,,,,,,,,,,,,,,,2026-01-20_12h22.45.472,,,,,,,,50.91583479102701,50.92597920820117,51.41938583366573,,,,,,,,,,,,,,,,,,,,543211,1,Right,1,2026-01-20_12h22.45.472,EmoNback_Behavioral,,2025.1.1,90.63091634475249,2026-01-20 12h23.01.158604 -0600,
4,4,0,5,1,VM Stimuli/BM09_NC.bmp,lure,nontarget,NeutFace,0-Back,None,0,VM Stimuli/AF218_NC.bmp,1,0,1,0,0,4,4,4,51.44235754106194,,,,,,,,,,,,,,,,,,,,,,,,,,,,,,,,,,,,,,,,,,,,,,,,,,,,,,,,,,,,,,51.420652500353754,,51.42071512527764,51.42393158376217,51.423994082957506,51.427375208586454,51.44235754106194,51.44235754106194,51.44235754106194,51.44235754106194,53.43464395869523,None,0,2,NA,NA,NA,2026-01-20_12h22.45.472,12:23:54,1,1,1,5,VM Stimuli/BM09_NC.bmp,NeutFace,,,,,,,,,,,,,,,,,,,,,,,543211,1,Right,1,2026-01-20_12h22.45.472,EmoNback_Behavioral,,2025.1.1,90.63091634475249,2026-01-20 12h23.01.158604 -0600,
4,4,0,5,1,VM Stimuli/BM09_NC.bmp,lure,nontarget,NeutFace,0-Back,None,0,VM Stimuli/AF218_NC.bmp,1,0,1,0,0,4,4,4,,,,,,,,,,,,,,,,,,,,,,,,,,,,,,,,,,,,,,,,,,,,,,,,,,,,,,,,,,,,,,,,,,,,,,,,,,,,,,,,2026-01-20_12h22.45.472,,,,,,,,53.43542533367872,53.44561470858753,53.93647679127753,,,,,,,,,,,,,,,,,,,,543211,1,Right,1,2026-01-20_12h22.45.472,EmoNback_Behavioral,,2025.1.1,90.63091634475249,2026-01-20 12h23.01.158604 -0600,
5,5,0,6,1,VM Stimuli/AF218_NC.bmp,target,Target,NeutFace,0-Back,None,0,VM Stimuli/AF218_NC.bmp,1,0,1,0,0,5,5,5,53.959445415996015,,,,,,,,,,,,,,,,,,,,,,,,,,,,,,,,,,,,,,,,,,,,,,,,,,,,,,,,,,,,,,53.93737737555057,,53.93742445856333,53.940659458748996,53.940715208649635,53.94405187573284,53.959445415996015,53.959445415996015,53.959445415996015,53.959445415996015,55.951518250629306,None,0,1,NA,NA,NA,2026-01-20_12h22.45.472,12:23:57,1,1,1,6,VM Stimuli/AF218_NC.bmp,NeutFace,,,,,,,,,,,,,,,,,,,,,,,543211,1,Right,1,2026-01-20_12h22.45.472,EmoNback_Behavioral,,2025.1.1,90.63091634475249,2026-01-20 12h23.01.158604 -0600,
5,5,0,6,1,VM Stimuli/AF218_NC.bmp,target,Target,NeutFace,0-Back,None,0,VM Stimuli/AF218_NC.bmp,1,0,1,0,0,5,5,5,,,,,,,,,,,,,,,,,,,,,,,,,,,,,,,,,,,,,,,,,,,,,,,,,,,,,,,,,,,,,,,,,,,,,,,,,,,,,,,,2026-01-20_12h22.45.472,,,,,,,,55.952143458649516,55.96171666588634,56.44468304142356,,,,,,,,,,,,,,,,,,,,543211,1,Right,1,2026-01-20_12h22.45.472,EmoNback_Behavioral,,2025.1.1,90.63091634475249,2026-01-20 12h23.01.158604 -0600,
6,6,0,7,1,VM Stimuli/7F_NC.bmp,nonlure,nontarget,NeutFace,0-Back,None,0,VM Stimuli/AF218_NC.bmp,1,0,1,0,0,6,6,6,56.469037875533104,,,,,,,,,,,,,,,,,,,,,,,,,,,,,,,,,,,,,,,,,,,,,,,,,,,,,,,,,,,,,,56.4457011250779,,56.445749000646174,56.44885537493974,56.4489137083292,56.45436983369291,56.469037875533104,56.469037875533104,56.469037875533104,56.469037875533104,58.453844875097275,None,0,2,NA,NA,NA,2026-01-20_12h22.45.472,12:23:59,1,1,1,7,VM Stimuli/7F_NC.bmp,NeutFace,,,,,,,,,,,,,,,,,,,,,,,543211,1,Right,1,2026-01-20_12h22.45.472,EmoNback_Behavioral,,2025.1.1,90.63091634475249,2026-01-20 12h23.01.158604 -0600,
6,6,0,7,1,VM Stimuli/7F_NC.bmp,nonlure,nontarget,NeutFace,0-Back,None,0,VM Stimuli/AF218_NC.bmp,1,0,1,0,0,6,6,6,,,,,,,,,,,,,,,,,,,,,,,,,,,,,,,,,,,,,,,,,,,,,,,,,,,,,,,,,,,,,,,,,,,,,,,,,,,,,,,,2026-01-20_12h22.45.472,,,,,,,,58.454530916176736,58.464647750370204,58.95382879115641,,,,,,,,,,,,,,,,,,,,543211,1,Right,1,2026-01-20_12h22.45.472,EmoNback_Behavioral,,2025.1.1,90.63091634475249,2026-01-20 12h23.01.158604 -0600,
7,7,0,8,1,VM Stimuli/7F_NC.bmp,lure,nontarget,NeutFace,0-Back,None,0,VM Stimuli/AF218_NC.bmp,1,0,1,0,0,7,7,7,58.974073458462954,,,,,,,,,,,,,,,,,,,,,,,,,,,,,,,,,,,,,,,,,,,,,,,,,,,,,,,,,,,,,,58.954622166231275,,58.95464537572116,58.95655220840126,58.95657966658473,58.95942191593349,58.974073458462954,58.974073458462954,58.974073458462954,58.974073458462954,60.960675375536084,None,0,2,NA,NA,NA,2026-01-20_12h22.45.472,12:24:02,1,1,1,8,VM Stimuli/7F_NC.bmp,NeutFace,,,,,,,,,,,,,,,,,,,,,,,543211,1,Right,1,2026-01-20_12h22.45.472,EmoNback_Behavioral,,2025.1.1,90.63091634475249,2026-01-20 12h23.01.158604 -0600,
7,7,0,8,1,VM Stimuli/7F_NC.bmp,lure,nontarget,NeutFace,0-Back,None,0,VM Stimuli/AF218_NC.bmp,1,0,1,0,0,7,7,7,,,,,,,,,,,,,,,,,,,,,,,,,,,,,,,,,,,,,,,,,,,,,,,,,,,,,,,,,,,,,,,,,,,,,,,,,,,,,,,,2026-01-20_12h22.45.472,,,,,,,,60.96135629154742,60.97189408354461,61.455673625692725,,,,,61.47901925072074,,,,,,,,,,,,,,,543211,1,Right,1,2026-01-20_12h22.45.472,EmoNback_Behavioral,,2025.1.1,90.63091634475249,2026-01-20 12h23.01.158604 -0600,
8,8,0,9,1,VM Stimuli/42M_NC.bmp,lure,nontarget,NeutFace,0-Back,None,0,VM Stimuli/AF218_NC.bmp,1,0,1,0,0,8,8,8,61.47901925072074,,,,,,,,,,,,,,,,,,,,,,,,,,,,,,,,,,,,,,,,,,,,,,,,,,,,,,,,,,,,,,61.45671887509525,,61.45676704123616,61.45989816635847,61.459955083206296,61.46470908354968,61.47901925072074,61.47901925072074,61.47901925072074,61.47901925072074,63.470878166146576,None,0,2,NA,NA,NA,2026-01-20_12h22.45.472,12:24:04,1,1,1,9,VM Stimuli/42M_NC.bmp,NeutFace,,,,,,,,,,,,,,,,,,,,,,,543211,1,Right,1,2026-01-20_12h22.45.472,EmoNback_Behavioral,,2025.1.1,90.63091634475249,2026-01-20 12h23.01.158604 -0600,
8,8,0,9,1,VM Stimuli/42M_NC.bmp,lure,nontarget,NeutFace,0-Back,None,0,VM Stimuli/AF218_NC.bmp,1,0,1,0,0,8,8,8,,,,,,,,,,,,,,,,,,,,,,,,,,,,,,,,,,,,,,,,,,,,,,,,,,,,,,,,,,,,,,,,,,,,,,,,,,,,,,,,2026-01-20_12h22.45.472,,,,,,,,63.47237016633153,63.48471312504262,63.96358737535775,,,,,,,,,,,,,,,,,,,,543211,1,Right,1,2026-01-20_12h22.45.472,EmoNback_Behavioral,,2025.1.1,90.63091634475249,2026-01-20 12h23.01.158604 -0600,
9,9,0,10,1,VM Stimuli/LM207_NC.bmp,nonlure,nontarget,NeutFace,0-Back,None,0,VM Stimuli/AF218_NC.bmp,1,0,1,0,0,9,9,9,63.98820804152638,,,,,,,,,,,,,,,,,,,,,,,,,,,,,,,,,,,,,,,,,,,,,,,,,,,,,,,,,,,,,,63.96465591620654,,63.964704166166484,63.967864375561476,63.96792108286172,63.97334587574005,63.98820804152638,63.98820804152638,63.98820804152638,63.98820804152638,65.96984400041401,None,0,2,NA,NA,NA,2026-01-20_12h22.45.472,12:24:07,1,1,1,10,VM Stimuli/LM207_NC.bmp,NeutFace,,,,,,,,,,,,,,,,,,,,,,,543211,1,Right,1,2026-01-20_12h22.45.472,EmoNback_Behavioral,,2025.1.1,90.63091634475249,2026-01-20 12h23.01.158604 -0600,
9,9,0,10,1,VM Stimuli/LM207_NC.bmp,nonlure,nontarget,NeutFace,0-Back,None,0,VM Stimuli/AF218_NC.bmp,1,0,1,0,0,9,9,9,,,,,,,,,,,,,,,,,,,,,,,,,,,,,,,,,,,,,,,,,,,,,,,,,,,,,,,,,,,,,,,,,,,,,,,,,,,,,,,,2026-01-20_12h22.45.472,,,,,,,,65.9705961663276,65.98179779108614,66.46862283349037,,,,,,,,,,,,,,,,,,,,543211,1,Right,1,2026-01-20_12h22.45.472,EmoNback_Behavioral,,2025.1.1,90.63091634475249,2026-01-20 12h23.01.158604 -0600,
0,0,0,1,1,VM Stimuli/17F_FO.bmp,nonlure,nontarget,NegFace,2-Back,None,0,,2,0,2,0,0,0,0,0,67.01763954106718,,,,,,,,,,,,,,,,,,,,,,,,,,,,,,,,,,,,,,,,,,,,,,,,,,,,,,,,,,,66.49330854136497,66.50510412547737,66.99554654117674,67.00579570792615,67.01763954106718,69.47994875069708,69.54358716588467,69.54362595826387,69.54899854119867,69.56125195790082,69.56125195790082,69.56125195790082,69.56125195790082,71.54815987497568,None,0,2,NA,NA,NA,2026-01-20_12h22.45.472,12:24:12,1,1,2,1,VM Stimuli/17F_FO.bmp,NegFace,,,,,,,,,66.47684308327734,66.47694891598076,,,,,,,,,,,,,543211,1,Right,1,2026-01-20_12h22.45.472,EmoNback_Behavioral,,2025.1.1,90.63091634475249,2026-01-20 12h23.01.158604 -0600,
0,0,0,1,1,VM Stimuli/17F_FO.bmp,nonlure,nontarget,NegFace,2-Back,None,0,,2,0,2,0,0,0,0,0,,,,,,,,,,,,,,,,,,,,,,,,,,,,,,,,,,,,,,,,,,,,,,,,,,,,,,,,,,,,,,,,,,,,,,,,,,,,,,,,2026-01-20_12h22.45.472,,,,,,,,71.54885204136372,71.55899458285421,72.04532537516207,,,,,,,,,,,,,,,,,,,,543211,1,Right,1,2026-01-20_12h22.45.472,EmoNback_Behavioral,,2025.1.1,90.63091634475249,2026-01-20 12h23.01.158604 -0600,
1,1,0,2,1,VM Stimuli/HM03_FO.bmp,nonlure,nontarget,NegFace,2-Back,None,0,,2,0,2,0,0,1,1,1,72.1053300416097,,,,,,,,,,,,,,,,,,,,,,,,,,,,,,,,,,,,,,,,,,,,,,,,,,,,,,,,,,,,,,72.04626462515444,,72.04631433356553,72.08934949990362,72.0893899584189,72.09343962557614,72.1053300416097,72.1053300416097,72.1053300416097,72.1053300416097,74.09321608301252,None,0,2,NA,NA,NA,2026-01-20_12h22.45.472,12:24:15,1,1,2,2,VM Stimuli/HM03_FO.bmp,NegFace,,,,,,,,,,,,,,,,,,,,,,,543211,1,Right,1,2026-01-20_12h22.45.472,EmoNback_Behavioral,,2025.1.1,90.63091634475249,2026-01-20 12h23.01.158604 -0600,
1,1,0,2,1,VM Stimuli/HM03_FO.bmp,nonlure,nontarget,NegFace,2-Back,None,0,,2,0,2,0,0,1,1,1,,,,,,,,,,,,,,,,,,,,,,,,,,,,,,,,,,,,,,,,,,,,,,,,,,,,,,,,,,,,,,,,,,,,,,,,,,,,,,,,2026-01-20_12h22.45.472,,,,,,,,74.09389854129404,74.11874500010163,74.59062908310443,,,,,,,,,,,,,,,,,,,,543211,1,Right,1,2026-01-20_12h22.45.472,EmoNback_Behavioral,,2025.1.1,90.63091634475249,2026-01-20 12h23.01.158604 -0600,
2,2,0,3,1,VM Stimuli/BM045_FO.bmp,nonlure,nontarget,NegFace,2-Back,None,0,,2,0,2,0,0,2,2,2,74.63765349984169,,,,,,,,,,,,,,,,,,,,,,,,,,,,,,,,,,,,,,,,,,,,,,,,,,,,,,,,,,,,,,74.59157179109752,,74.59162100031972,74.62049470841885,74.62055412493646,74.62501379102468,74.63765349984169,74.63765349984169,74.63765349984169,74.63765349984169,76.62976737506688,None,0,2,NA,NA,NA,2026-01-20_12h22.45.472,12:24:17,1,1,2,3,VM Stimuli/BM045_FO.bmp,NegFace,,,,,,,,,,,,,,,,,,,,,,,543211,1,Right,1,2026-01-20_12h22.45.472,EmoNback_Behavioral,,2025.1.1,90.63091634475249,2026-01-20 12h23.01.158604 -0600,
2,2,0,3,1,VM Stimuli/BM045_FO.bmp,nonlure,nontarget,NegFace,2-Back,None,0,,2,0,2,0,0,2,2,2,,,,,,,,,,,,,,,,,,,,,,,,,,,,,,,,,,,,,,,,,,,,,,,,,,,,,,,,,,,,,,,,,,,,,,,,,,,,,,,,2026-01-20_12h22.45.472,,,,,,,,76.63039066642523,76.6401812909171,77.13159691635519,,,,,,,,,,,,,,,,,,,,543211,1,Right,1,2026-01-20_12h22.45.472,EmoNback_Behavioral,,2025.1.1,90.63091634475249,2026-01-20 12h23.01.158604 -0600,
3,3,0,4,1,VM Stimuli/HM03_FO.bmp,target,Target,NegFace,2-Back,None,0,,2,0,2,0,0,3,3,3,77.17770691588521,,,,,,,,,,,,,,,,,,,,,,,,,,,,,,,,,,,,,,,,,,,,,,,,,,,,,,,,,,,,,,77.13289291597903,,77.1329558333382,77.1619681250304,77.16201812494546,77.16474420856684,77.17770691588521,77.17770691588521,77.17770691588521,77.17770691588521,79.16870775073767,None,0,1,NA,NA,NA,2026-01-20_12h22.45.472,12:24:20,1,1,2,4,VM Stimuli/HM03_FO.bmp,NegFace,,,,,,,,,,,,,,,,,,,,,,,543211,1,Right,1,2026-01-20_12h22.45.472,EmoNback_Behavioral,,2025.1.1,90.63091634475249,2026-01-20 12h23.01.158604 -0600,
3,3,0,4,1,VM Stimuli/HM03_FO.bmp,target,Target,NegFace,2-Back,None,0,,2,0,2,0,0,3,3,3,,,,,,,,,,,,,,,,,,,,,,,,,,,,,,,,,,,,,,,,,,,,,,,,,,,,,,,,,,,,,,,,,,,,,,,,,,,,,,,,2026-01-20_12h22.45.472,,,,,,,,79.16938683297485,79.17971791606396,79.66942816600204,,,,,,,,,,,,,,,,,,,,543211,1,Right,1,2026-01-20_12h22.45.472,EmoNback_Behavioral,,2025.1.1,90.63091634475249,2026-01-20 12h23.01.158604 -0600,
4,4,0,5,1,VM Stimuli/17F_FO.bmp,lure,nontarget,NegFace,2-Back,None,0,,2,0,2,0,0,4,4,4,79.71620487514883,,,,,,,,,,,,,,,,,,,,,,,,,,,,,,,,,,,,,,,,,,,,,,,,,,,,,,,,,,,,,,79.6702967081219,,79.67034587543458,79.6983750006184,79.69842541590333,79.70301254093647,79.71620487514883,79.71620487514883,79.71620487514883,79.71620487514883,81.70580837503076,None,0,2,NA,NA,NA,2026-01-20_12h22.45.472,12:24:22,1,1,2,5,VM Stimuli/17F_FO.bmp,NegFace,,,,,,,,,,,,,,,,,,,,,,,543211,1,Right,1,2026-01-20_12h22.45.472,EmoNback_Behavioral,,2025.1.1,90.63091634475249,2026-01-20 12h23.01.158604 -0600,
4,4,0,5,1,VM Stimuli/17F_FO.bmp,lure,nontarget,NegFace,2-Back,None,0,,2,0,2,0,0,4,4,4,,,,,,,,,,,,,,,,,,,,,,,,,,,,,,,,,,,,,,,,,,,,,,,,,,,,,,,,,,,,,,,,,,,,,,,,,,,,,,,,2026-01-20_12h22.45.472,,,,,,,,81.70649116672575,81.71931549999863,82.20555162522942,,,,,,,,,,,,,,,,,,,,543211,1,Right,1,2026-01-20_12h22.45.472,EmoNback_Behavioral,,2025.1.1,90.63091634475249,2026-01-20 12h23.01.158604 -0600,
5,5,0,6,1,VM Stimuli/BM045_FO.bmp,lure,nontarget,NegFace,2-Back,None,0,,2,0,2,0,0,5,5,5,82.24934254121035,,,,,,,,,,,,,,,,,,,,,,,,,,,,,,,,,,,,,,,,,,,,,,,,,,,,,,,,,,,,,,82.20650004129857,,82.20654841605574,82.2339145001024,82.23396416660398,82.23644208349288,82.24934254121035,82.24934254121035,82.24934254121035,82.24934254121035,84.24033104162663,None,0,2,NA,NA,NA,2026-01-20_12h22.45.472,12:24:25,1,1,2,6,VM Stimuli/BM045_FO.bmp,NegFace,,,,,,,,,,,,,,,,,,,,,,,543211,1,Right,1,2026-01-20_12h22.45.472,EmoNback_Behavioral,,2025.1.1,90.63091634475249,2026-01-20 12h23.01.158604 -0600,
5,5,0,6,1,VM Stimuli/BM045_FO.bmp,lure,nontarget,NegFace,2-Back,None,0,,2,0,2,0,0,5,5,5,,,,,,,,,,,,,,,,,,,,,,,,,,,,,,,,,,,,,,,,,,,,,,,,,,,,,,,,,,,,,,,,,,,,,,,,,,,,,,,,2026-01-20_12h22.45.472,,,,,,,,84.24095362517983,84.250961875543,84.73407433368266,,,,,84.7807586658746,,,,,,,,,,,,,,,543211,1,Right,1,2026-01-20_12h22.45.472,EmoNback_Behavioral,,2025.1.1,90.63091634475249,2026-01-20 12h23.01.158604 -0600,
6,6,0,7,1,VM Stimuli/9F_FO.bmp,nonlure,nontarget,NegFace,2-Back,None,0,,2,0,2,0,0,6,6,6,84.7807586658746,,,,,,,,,,,,,,,,,,,,,,,,,,,,,,,,,,,,,,,,,,,,,,,,,,,,,,,,,,,,,,84.73526783287525,,84.73531879112124,84.76344775035977,84.76349808368832,84.76763366628438,84.7807586658746,84.7807586658746,84.7807586658746,84.7807586658746,86.77246620785445,None,0,2,NA,NA,NA,2026-01-20_12h22.45.472,12:24:27,1,1,2,7,VM Stimuli/9F_FO.bmp,NegFace,,,,,,,,,,,,,,,,,,,,,,,543211,1,Right,1,2026-01-20_12h22.45.472,EmoNback_Behavioral,,2025.1.1,90.63091634475249,2026-01-20 12h23.01.158604 -0600,
6,6,0,7,1,VM Stimuli/9F_FO.bmp,nonlure,nontarget,NegFace,2-Back,None,0,,2,0,2,0,0,6,6,6,,,,,,,,,,,,,,,,,,,,,,,,,,,,,,,,,,,,,,,,,,,,,,,,,,,,,,,,,,,,,,,,,,,,,,,,,,,,,,,,2026-01-20_12h22.45.472,,,,,,,,86.77322675008327,86.78587295860052,87.26410245802253,,,,,,,,,,,,,,,,,,,,543211,1,Right,1,2026-01-20_12h22.45.472,EmoNback_Behavioral,,2025.1.1,90.63091634475249,2026-01-20 12h23.01.158604 -0600,
7,7,0,8,1,VM Stimuli/WM004_FO.bmp,nonlure,nontarget,NegFace,2-Back,None,0,,2,0,2,0,0,7,7,7,87.31124187540263,,,,,,,,,,,,,,,,,,,,,,,,,,,,,,,,,,,,,,,,,,,,,,,,,,,,,,,,,,,,,,87.26538187544793,,87.265444916673,87.29436762537807,87.29441825021058,87.29843058343977,87.31124187540263,87.31124187540263,87.31124187540263,87.31124187540263,89.29622745793313,None,0,2,NA,NA,NA,2026-01-20_12h22.45.472,12:24:30,1,1,2,8,VM Stimuli/WM004_FO.bmp,NegFace,,,,,,,,,,,,,,,,,,,,,,,543211,1,Right,1,2026-01-20_12h22.45.472,EmoNback_Behavioral,,2025.1.1,90.63091634475249,2026-01-20 12h23.01.158604 -0600,
7,7,0,8,1,VM Stimuli/WM004_FO.bmp,nonlure,nontarget,NegFace,2-Back,None,0,,2,0,2,0,0,7,7,7,,,,,,,,,,,,,,,,,,,,,,,,,,,,,,,,,,,,,,,,,,,,,,,,,,,,,,,,,,,,,,,,,,,,,,,,,,,,,,,,2026-01-20_12h22.45.472,,,,,,,,89.29691124986857,89.30715758353472,89.79503183346242,,,,,,,,,,,,,,,,,,,,543211,1,Right,1,2026-01-20_12h22.45.472,EmoNback_Behavioral,,2025.1.1,90.63091634475249,2026-01-20 12h23.01.158604 -0600,
8,8,0,9,1,VM Stimuli/9F_FO.bmp,target,Target,NegFace,2-Back,None,0,,2,0,2,0,0,8,8,8,89.84028658363968,,,,,,,,,,,,,,,,,,,,,,,,,,,,,,,,,,,,,,,,,,,,,,,,,,,,,,,,,,,,,,89.79597575031221,,89.7960246251896,89.82458370830864,89.82463391590863,89.82737129088491,89.84028658363968,89.84028658363968,89.84028658363968,89.84028658363968,91.82340025063604,None,0,1,NA,NA,NA,2026-01-20_12h22.45.472,12:24:32,1,1,2,9,VM Stimuli/9F_FO.bmp,NegFace,,,,91.83412483334541,91.83412483334541,91.83412483334541,91.83412483334541,,,,,,,,,,,,,,,,543211,1,Right,1,2026-01-20_12h22.45.472,EmoNback_Behavioral,,2025.1.1,90.63091634475249,2026-01-20 12h23.01.158604 -0600,
8,8,0,9,1,VM Stimuli/9F_FO.bmp,target,Target,NegFace,2-Back,None,0,,2,0,2,0,0,8,8,8,,,,,,,,,,,,,,,,,,,,,,,,,,,,,,,,,,,,,,,,,,,,,,,,,,,,,,,,,,,,,,,,,,,,,,,,,,,,,,,,2026-01-20_12h22.45.472,,,,,,,,91.82404212560505,91.83412483334541,92.3249520836398,,,,,,,,,,,,,,,,,,,,543211,1,Right,1,2026-01-20_12h22.45.472,EmoNback_Behavioral,,2025.1.1,90.63091634475249,2026-01-20 12h23.01.158604 -0600,
9,9,0,10,1,VM Stimuli/BF06_FO.bmp,nonlure,nontarget,NegFace,2-Back,None,0,,2,0,2,0,0,9,9,9,92.37417700048536,,,,,,,,,,,,,,,,,,,,,,,,,,,,,,,,,,,,,,,,,,,,,,,,,,,,,,,,,,,,,,92.32599079143256,,92.32604129146785,92.35566704161465,92.3557253330946,92.35968075040728,92.37417700048536,92.37417700048536,92.37417700048536,92.37417700048536,94.36260087508708,None,0,2,NA,NA,NA,2026-01-20_12h22.45.472,12:24:35,1,1,2,10,VM Stimuli/BF06_FO.bmp,NegFace,,,,,,,,,,,,,,,,,,,,,,,543211,1,Right,1,2026-01-20_12h22.45.472,EmoNback_Behavioral,,2025.1.1,90.63091634475249,2026-01-20 12h23.01.158604 -0600,
9,9,0,10,1,VM Stimuli/BF06_FO.bmp,nonlure,nontarget,NegFace,2-Back,None,0,,2,0,2,0,0,9,9,9,,,,,,,,,,,,,,,,,,,,,,,,,,,,,,,,,,,,,,,,,,,,,,,,,,,,,,,,,,,,,,,,,,,,,,,,,,,,,,,,2026-01-20_12h22.45.472,,,,,,,,94.36330133304,94.3734217910096,94.86101375054568,,,,,,,,,,,,,,,,,,,,543211,1,Right,1,2026-01-20_12h22.45.472,EmoNback_Behavioral,,2025.1.1,90.63091634475249,2026-01-20 12h23.01.158604 -0600,
0,0,0,1,1,VM Stimuli/34M_HO.bmp,target,Target,PosFace,0-Back,None,0,VM Stimuli/34M_HO.bmp,3,0,3,0,0,0,0,0,95.41295541636646,,,,,,,,,,,,,,,,,,,,,,,,,,,,,,,,,,,,,,,,,,,,,,,,,,,,,,,,,,,94.87620100006461,94.88720687571913,95.37993362545967,95.39022204093635,,95.39027941599488,95.40150250028819,97.87544724997133,97.8797603752464,97.89516829140484,97.89516829140484,97.89516829140484,97.89516829140484,99.89052654150873,None,0,1,NA,NA,NA,2026-01-20_12h22.45.472,12:24:41,1,1,3,1,VM Stimuli/34M_HO.bmp,PosFace,,,,99.92195012513548,99.92195012513548,99.92195012513548,99.92195012513548,,94.86463891621679,94.86472125072032,95.41295541636646,95.41295541636646,,,,,,,,,,,543211,1,Right,1,2026-01-20_12h22.45.472,EmoNback_Behavioral,,2025.1.1,90.63091634475249,2026-01-20 12h23.01.158604 -0600,
0,0,0,1,1,VM Stimuli/34M_HO.bmp,target,Target,PosFace,0-Back,None,0,VM Stimuli/34M_HO.bmp,3,0,3,0,0,0,0,0,,,,,,,,,,,,,,,,,,,,,,,,,,,,,,,,,,,,,,,,,,,,,,,,,,,,,,,,,,,,,,,,,,,,,,,,,,,,,,,,2026-01-20_12h22.45.472,,,,,,,,99.89174716640264,99.92195012513548,100.39923566672951,,,,,,,,,,,,,,,,,,,,543211,1,Right,1,2026-01-20_12h22.45.472,EmoNback_Behavioral,,2025.1.1,90.63091634475249,2026-01-20 12h23.01.158604 -0600,
1,1,0,2,1,VM Stimuli/BM08_HO.bmp,nonlure,nontarget,PosFace,0-Back,None,0,VM Stimuli/34M_HO.bmp,3,0,3,0,0,1,1,1,100.42207741644233,,,,,,,,,,,,,,,,,,,,,,,,,,,,,,,,,,,,,,,,,,,,,,,,,,,,,,,,,,,,,,100.40048537496477,,100.40051054116338,100.40513445809484,100.40517133288085,100.40809245873243,100.42207741644233,100.42207741644233,100.42207741644233,100.42207741644233,102.41156987566501,None,0,2,NA,NA,NA,2026-01-20_12h22.45.472,12:24:43,1,1,3,2,VM Stimuli/BM08_HO.bmp,PosFace,,,,,,,,,,,,,,,,,,,,,,,543211,1,Right,1,2026-01-20_12h22.45.472,EmoNback_Behavioral,,2025.1.1,90.63091634475249,2026-01-20 12h23.01.158604 -0600,
1,1,0,2,1,VM Stimuli/BM08_HO.bmp,nonlure,nontarget,PosFace,0-Back,None,0,VM Stimuli/34M_HO.bmp,3,0,3,0,0,1,1,1,,,,,,,,,,,,,,,,,,,,,,,,,,,,,,,,,,,,,,,,,,,,,,,,,,,,,,,,,,,,,,,,,,,,,,,,,,,,,,,,2026-01-20_12h22.45.472,,,,,,,,102.41270187497139,102.4234863333404,102.91284816619009,,,,,,,,,,,,,,,,,,,,543211,1,Right,1,2026-01-20_12h22.45.472,EmoNback_Behavioral,,2025.1.1,90.63091634475249,2026-01-20 12h23.01.158604 -0600,
2,2,0,3,1,VM Stimuli/HF04_HO.bmp,nonlure,nontarget,PosFace,0-Back,None,0,VM Stimuli/34M_HO.bmp,3,0,3,0,0,2,2,2,102.9379617087543,,,,,,,,,,,,,,,,,,,,,,,,,,,,,,,,,,,,,,,,,,,,,,,,,,,,,,,,,,,,,,102.91397604160011,,102.91402458306402,102.91835137549788,102.91840954124928,102.92342866584659,102.9379617087543,102.9379617087543,102.9379617087543,102.9379617087543,104.92735020816326,None,0,2,NA,NA,NA,2026-01-20_12h22.45.472,12:24:46,1,1,3,3,VM Stimuli/HF04_HO.bmp,PosFace,,,,,,,,,,,,,,,,,,,,,,,543211,1,Right,1,2026-01-20_12h22.45.472,EmoNback_Behavioral,,2025.1.1,90.63091634475249,2026-01-20 12h23.01.158604 -0600,
2,2,0,3,1,VM Stimuli/HF04_HO.bmp,nonlure,nontarget,PosFace,0-Back,None,0,VM Stimuli/34M_HO.bmp,3,0,3,0,0,2,2,2,,,,,,,,,,,,,,,,,,,,,,,,,,,,,,,,,,,,,,,,,,,,,,,,,,,,,,,,,,,,,,,,,,,,,,,,,,,,,,,,2026-01-20_12h22.45.472,,,,,,,,104.92812695819885,104.93972883373499,105.41915712505579,,,,,,,,,,,,,,,,,,,,543211,1,Right,1,2026-01-20_12h22.45.472,EmoNback_Behavioral,,2025.1.1,90.63091634475249,2026-01-20 12h23.01.158604 -0600,
3,3,0,4,1,VM Stimuli/BF002_HO.bmp,nonlure,nontarget,PosFace,0-Back,None,0,VM Stimuli/34M_HO.bmp,3,0,3,0,0,3,3,3,105.44416570849717,,,,,,,,,,,,,,,,,,,,,,,,,,,,,,,,,,,,,,,,,,,,,,,,,,,,,,,,,,,,,,105.42028354108334,,105.42034391593188,105.42396008316427,105.424018249847,105.42944491654634,105.44416570849717,105.44416570849717,105.44416570849717,105.44416570849717,107.43497433327138,None,0,2,NA,NA,NA,2026-01-20_12h22.45.472,12:24:48,1,1,3,4,VM Stimuli/BF002_HO.bmp,PosFace,,,,,,,,,,,,,,,,,,,,,,,543211,1,Right,1,2026-01-20_12h22.45.472,EmoNback_Behavioral,,2025.1.1,90.63091634475249,2026-01-20 12h23.01.158604 -0600,
3,3,0,4,1,VM Stimuli/BF002_HO.bmp,nonlure,nontarget,PosFace,0-Back,None,0,VM Stimuli/34M_HO.bmp,3,0,3,0,0,3,3,3,,,,,,,,,,,,,,,,,,,,,,,,,,,,,,,,,,,,,,,,,,,,,,,,,,,,,,,,,,,,,,,,,,,,,,,,,,,,,,,,2026-01-20_12h22.45.472,,,,,,,,107.43567575048655,107.44563633296639,107.93589387554675,,,,,,,,,,,,,,,,,,,,543211,1,Right,1,2026-01-20_12h22.45.472,EmoNback_Behavioral,,2025.1.1,90.63091634475249,2026-01-20 12h23.01.158604 -0600,
4,4,0,5,1,VM Stimuli/BM08_HO.bmp,lure,nontarget,PosFace,0-Back,None,0,VM Stimuli/34M_HO.bmp,3,0,3,0,0,4,4,4,107.96022624988109,,,,,,,,,,,,,,,,,,,,,,,,,,,,,,,,,,,,,,,,,,,,,,,,,,,,,,,,,,,,,,107.9367904998362,,107.93683791626245,107.93997779116035,107.94003445841372,107.94523362535983,107.96022624988109,107.96022624988109,107.96022624988109,107.96022624988109,109.94906275067478,None,0,2,NA,NA,NA,2026-01-20_12h22.45.472,12:24:51,1,1,3,5,VM Stimuli/BM08_HO.bmp,PosFace,,,,,,,,,,,,,,,,,,,,,,,543211,1,Right,1,2026-01-20_12h22.45.472,EmoNback_Behavioral,,2025.1.1,90.63091634475249,2026-01-20 12h23.01.158604 -0600,
4,4,0,5,1,VM Stimuli/BM08_HO.bmp,lure,nontarget,PosFace,0-Back,None,0,VM Stimuli/34M_HO.bmp,3,0,3,0,0,4,4,4,,,,,,,,,,,,,,,,,,,,,,,,,,,,,,,,,,,,,,,,,,,,,,,,,,,,,,,,,,,,,,,,,,,,,,,,,,,,,,,,2026-01-20_12h22.45.472,,,,,,,,109.94990537501872,109.96249537542462,110.4489935413003,,,,,,,,,,,,,,,,,,,,543211,1,Right,1,2026-01-20_12h22.45.472,EmoNback_Behavioral,,2025.1.1,90.63091634475249,2026-01-20 12h23.01.158604 -0600,
5,5,0,6,1,VM Stimuli/45M_HO.bmp,nonlure,nontarget,PosFace,0-Back,None,0,VM Stimuli/34M_HO.bmp,3,0,3,0,0,5,5,5,110.47680295817554,,,,,,,,,,,,,,,,,,,,,,,,,,,,,,,,,,,,,,,,,,,,,,,,,,,,,,,,,,,,,,110.45086833368987,,110.45093229133636,110.4568385835737,110.45689779147506,110.46218125056475,110.47680295817554,110.47680295817554,110.47680295817554,110.47680295817554,112.46271258313209,None,0,2,NA,NA,NA,2026-01-20_12h22.45.472,12:24:53,1,1,3,6,VM Stimuli/45M_HO.bmp,PosFace,,,,,,,,,,,,,,,,,,,,,,,543211,1,Right,1,2026-01-20_12h22.45.472,EmoNback_Behavioral,,2025.1.1,90.63091634475249,2026-01-20 12h23.01.158604 -0600,
5,5,0,6,1,VM Stimuli/45M_HO.bmp,nonlure,nontarget,PosFace,0-Back,None,0,VM Stimuli/34M_HO.bmp,3,0,3,0,0,5,5,5,,,,,,,,,,,,,,,,,,,,,,,,,,,,,,,,,,,,,,,,,,,,,,,,,,,,,,,,,,,,,,,,,,,,,,,,,,,,,,,,2026-01-20_12h22.45.472,,,,,,,,112.46363850031048,112.47502799984068,112.9633460007608,,,,,,,,,,,,,,,,,,,,543211,1,Right,1,2026-01-20_12h22.45.472,EmoNback_Behavioral,,2025.1.1,90.63091634475249,2026-01-20 12h23.01.158604 -0600,
6,6,0,7,1,VM Stimuli/45M_HO.bmp,lure,nontarget,PosFace,0-Back,None,0,VM Stimuli/34M_HO.bmp,3,0,3,0,0,6,6,6,112.98594208341092,,,,,,,,,,,,,,,,,,,,,,,,,,,,,,,,,,,,,,,,,,,,,,,,,,,,,,,,,,,,,,112.96430954150856,,112.9643574161455,112.96779124997556,112.96784920804203,112.97120587527752,112.98594208341092,112.98594208341092,112.98594208341092,112.98594208341092,114.97312050033361,None,0,2,NA,NA,NA,2026-01-20_12h22.45.472,12:24:56,1,1,3,7,VM Stimuli/45M_HO.bmp,PosFace,,,,,,,,,,,,,,,,,,,,,,,543211,1,Right,1,2026-01-20_12h22.45.472,EmoNback_Behavioral,,2025.1.1,90.63091634475249,2026-01-20 12h23.01.158604 -0600,
6,6,0,7,1,VM Stimuli/45M_HO.bmp,lure,nontarget,PosFace,0-Back,None,0,VM Stimuli/34M_HO.bmp,3,0,3,0,0,6,6,6,,,,,,,,,,,,,,,,,,,,,,,,,,,,,,,,,,,,,,,,,,,,,,,,,,,,,,,,,,,,,,,,,,,,,,,,,,,,,,,,2026-01-20_12h22.45.472,,,,,,,,114.97386983316392,114.98463224992156,115.46760683320463,,,,,115.49284245818853,,,,,,,,,,,,,,,543211,1,Right,1,2026-01-20_12h22.45.472,EmoNback_Behavioral,,2025.1.1,90.63091634475249,2026-01-20 12h23.01.158604 -0600,
7,7,0,8,1,VM Stimuli/BF002_HO.bmp,lure,nontarget,PosFace,0-Back,None,0,VM Stimuli/34M_HO.bmp,3,0,3,0,0,7,7,7,115.49284245818853,,,,,,,,,,,,,,,,,,,,,,,,,,,,,,,,,,,,,,,,,,,,,,,,,,,,,,,,,,,,,,115.46870691608638,,115.46876708324999,115.47200141660869,115.47206712514162,115.47819137573242,115.49284245818853,115.49284245818853,115.49284245818853,115.49284245818853,117.4748082505539,None,0,2,NA,NA,NA,2026-01-20_12h22.45.472,12:24:58,1,1,3,8,VM Stimuli/BF002_HO.bmp,PosFace,,,,,,,,,,,,,,,,,,,,,,,543211,1,Right,1,2026-01-20_12h22.45.472,EmoNback_Behavioral,,2025.1.1,90.63091634475249,2026-01-20 12h23.01.158604 -0600,
7,7,0,8,1,VM Stimuli/BF002_HO.bmp,lure,nontarget,PosFace,0-Back,None,0,VM Stimuli/34M_HO.bmp,3,0,3,0,0,7,7,7,,,,,,,,,,,,,,,,,,,,,,,,,,,,,,,,,,,,,,,,,,,,,,,,,,,,,,,,,,,,,,,,,,,,,,,,,,,,,,,,2026-01-20_12h22.45.472,,,,,,,,117.47549495846033,117.48558483365923,117.97283333353698,,,,,,,,,,,,,,,,,,,,543211,1,Right,1,2026-01-20_12h22.45.472,EmoNback_Behavioral,,2025.1.1,90.63091634475249,2026-01-20 12h23.01.158604 -0600,
8,8,0,9,1,VM Stimuli/34M_HO.bmp,target,Target,PosFace,0-Back,None,0,VM Stimuli/34M_HO.bmp,3,0,3,0,0,8,8,8,117.99484741594642,,,,,,,,,,,,,,,,,,,,,,,,,,,,,,,,,,,,,,,,,,,,,,,,,,,,,,,,,,,,,,117.97381279151887,,117.97386091668159,117.97695266641676,117.97700904123485,117.9802731666714,117.99484741594642,117.99484741594642,117.99484741594642,117.99484741594642,119.98158250004053,None,0,1,NA,NA,NA,2026-01-20_12h22.45.472,12:25:01,1,1,3,9,VM Stimuli/34M_HO.bmp,PosFace,,,,,,,,,,,,,,,,,,,,,,,543211,1,Right,1,2026-01-20_12h22.45.472,EmoNback_Behavioral,,2025.1.1,90.63091634475249,2026-01-20 12h23.01.158604 -0600,
8,8,0,9,1,VM Stimuli/34M_HO.bmp,target,Target,PosFace,0-Back,None,0,VM Stimuli/34M_HO.bmp,3,0,3,0,0,8,8,8,,,,,,,,,,,,,,,,,,,,,,,,,,,,,,,,,,,,,,,,,,,,,,,,,,,,,,,,,,,,,,,,,,,,,,,,,,,,,,,,2026-01-20_12h22.45.472,,,,,,,,119.98236529156566,119.99294170830399,120.47932366654277,,,,,,,,,,,,,,,,,,,,543211,1,Right,1,2026-01-20_12h22.45.472,EmoNback_Behavioral,,2025.1.1,90.63091634475249,2026-01-20 12h23.01.158604 -0600,
9,9,0,10,1,VM Stimuli/WF07_HO.bmp,nonlure,nontarget,PosFace,0-Back,None,0,VM Stimuli/34M_HO.bmp,3,0,3,0,0,9,9,9,120.50343754142523,,,,,,,,,,,,,,,,,,,,,,,,,,,,,,,,,,,,,,,,,,,,,,,,,,,,,,,,,,,,,,120.48033787496388,,120.48038583341986,120.48346008360386,120.48351700045168,120.4883451256901,120.50343754142523,120.50343754142523,120.50343754142523,120.50343754142523,122.50176162552088,None,0,2,NA,NA,NA,2026-01-20_12h22.45.472,12:25:03,1,1,3,10,VM Stimuli/WF07_HO.bmp,PosFace,,,,,,,,,,,,,,,,,,,,,,,543211,1,Right,1,2026-01-20_12h22.45.472,EmoNback_Behavioral,,2025.1.1,90.63091634475249,2026-01-20 12h23.01.158604 -0600,
9,9,0,10,1,VM Stimuli/WF07_HO.bmp,nonlure,nontarget,PosFace,0-Back,None,0,VM Stimuli/34M_HO.bmp,3,0,3,0,0,9,9,9,,,,,,,,,,,,,,,,,,,,,,,,,,,,,,,,,,,,,,,,,,,,,,,,,,,,,,,,,,,,,,,,,,,,,,,,,,,,,,,,2026-01-20_12h22.45.472,,,,,,,,122.50254787504673,122.51934874989092,122.9839312909171,,,,,,,,,,,,,,,,,,,,543211,1,Right,1,2026-01-20_12h22.45.472,EmoNback_Behavioral,,2025.1.1,90.63091634475249,2026-01-20 12h23.01.158604 -0600,
0,0,0,1,1,VM Stimuli/PL_003_92016.bmp,nonlure,nontarget,Place,0-Back,None,0,VM Stimuli/PL_001_92012.bmp,4,0,4,0,0,0,0,0,123.53861575014889,,,,,,,,,,,,,,,,,,,,,,,,,,,,,,,,,,,,,,,,,,,,,,,,,,,,,,,,,,,123.00716108363122,123.01832141634077,123.51065420825034,123.5212433328852,,123.52130100037903,123.52687829174101,126.01573891658336,126.02110329084098,126.0365502499044,126.0365502499044,126.0365502499044,126.0365502499044,128.02492658328265,None,0,2,NA,NA,NA,2026-01-20_12h22.45.472,12:25:09,1,1,4,1,VM Stimuli/PL_003_92016.bmp,Place,,,,,,,,,122.9886569166556,122.98874179087579,123.53861575014889,123.53861575014889,,,,,,,,,,,543211,1,Right,1,2026-01-20_12h22.45.472,EmoNback_Behavioral,,2025.1.1,90.63091634475249,2026-01-20 12h23.01.158604 -0600,
0,0,0,1,1,VM Stimuli/PL_003_92016.bmp,nonlure,nontarget,Place,0-Back,None,0,VM Stimuli/PL_001_92012.bmp,4,0,4,0,0,0,0,0,,,,,,,,,,,,,,,,,,,,,,,,,,,,,,,,,,,,,,,,,,,,,,,,,,,,,,,,,,,,,,,,,,,,,,,,,,,,,,,,2026-01-20_12h22.45.472,,,,,,,,128.02610004134476,128.03651945851743,128.52863000053912,,,,,,,,,,,,,,,,,,,,543211,1,Right,1,2026-01-20_12h22.45.472,EmoNback_Behavioral,,2025.1.1,90.63091634475249,2026-01-20 12h23.01.158604 -0600,
1,1,0,2,1,VM Stimuli/PL_003_92016.bmp,lure,nontarget,Place,0-Back,None,0,VM Stimuli/PL_001_92012.bmp,4,0,4,0,0,1,1,1,128.55204087495804,,,,,,,,,,,,,,,,,,,,,,,,,,,,,,,,,,,,,,,,,,,,,,,,,,,,,,,,,,,,,,128.52991191670299,,128.5299487505108,128.53350495826453,128.53354800026864,128.53675329126418,128.55204087495804,128.55204087495804,128.55204087495804,128.55204087495804,130.53663558326662,None,0,2,NA,NA,NA,2026-01-20_12h22.45.472,12:25:11,1,1,4,2,VM Stimuli/PL_003_92016.bmp,Place,,,,,,,,,,,,,,,,,,,,,,,543211,1,Right,1,2026-01-20_12h22.45.472,EmoNback_Behavioral,,2025.1.1,90.63091634475249,2026-01-20 12h23.01.158604 -0600,
1,1,0,2,1,VM Stimuli/PL_003_92016.bmp,lure,nontarget,Place,0-Back,None,0,VM Stimuli/PL_001_92012.bmp,4,0,4,0,0,1,1,1,,,,,,,,,,,,,,,,,,,,,,,,,,,,,,,,,,,,,,,,,,,,,,,,,,,,,,,,,,,,,,,,,,,,,,,,,,,,,,,,2026-01-20_12h22.45.472,,,,,,,,130.53739570826292,130.54759845789522,131.03565608337522,,,,,,,,,,,,,,,,,,,,543211,1,Right,1,2026-01-20_12h22.45.472,EmoNback_Behavioral,,2025.1.1,90.63091634475249,2026-01-20 12h23.01.158604 -0600,
2,2,0,3,1,VM Stimuli/PL_006_92025.bmp,nonlure,nontarget,Place,0-Back,None,0,VM Stimuli/PL_001_92012.bmp,4,0,4,0,0,2,2,2,131.05940591637045,,,,,,,,,,,,,,,,,,,,,,,,,,,,,,,,,,,,,,,,,,,,,,,,,,,,,,,,,,,,,,131.0367002915591,,131.0367479166016,131.04074537567794,131.0408087503165,131.0441212086007,131.05940591637045,131.05940591637045,131.05940591637045,131.05940591637045,133.04741212539375,None,0,2,NA,NA,NA,2026-01-20_12h22.45.472,12:25:14,1,1,4,3,VM Stimuli/PL_006_92025.bmp,Place,,,,,,,,,,,,,,,,,,,,,,,543211,1,Right,1,2026-01-20_12h22.45.472,EmoNback_Behavioral,,2025.1.1,90.63091634475249,2026-01-20 12h23.01.158604 -0600,
2,2,0,3,1,VM Stimuli/PL_006_92025.bmp,nonlure,nontarget,Place,0-Back,None,0,VM Stimuli/PL_001_92012.bmp,4,0,4,0,0,2,2,2,,,,,,,,,,,,,,,,,,,,,,,,,,,,,,,,,,,,,,,,,,,,,,,,,,,,,,,,,,,,,,,,,,,,,,,,,,,,,,,,2026-01-20_12h22.45.472,,,,,,,,133.04816279094666,133.0585862500593,133.54731550067663,,,,,,,,,,,,,,,,,,,,543211,1,Right,1,2026-01-20_12h22.45.472,EmoNback_Behavioral,,2025.1.1,90.63091634475249,2026-01-20 12h23.01.158604 -0600,
3,3,0,4,1,VM Stimuli/PL_001_92012.bmp,target,Target,Place,0-Back,None,0,VM Stimuli/PL_001_92012.bmp,4,0,4,0,0,3,3,3,133.57188270799816,,,,,,,,,,,,,,,,,,,,,,,,,,,,,,,,,,,,,,,,,,,,,,,,,,,,,,,,,,,,,,133.54850779101253,,133.5485677085817,133.55193616636097,133.55199304129928,133.55715408362448,133.57188270799816,133.57188270799816,133.57188270799816,133.57188270799816,135.55627950001508,None,0,1,NA,NA,NA,2026-01-20_12h22.45.472,12:25:16,1,1,4,4,VM Stimuli/PL_001_92012.bmp,Place,,,,,,,,,,,,,,,,,,,,,,,543211,1,Right,1,2026-01-20_12h22.45.472,EmoNback_Behavioral,,2025.1.1,90.63091634475249,2026-01-20 12h23.01.158604 -0600,
3,3,0,4,1,VM Stimuli/PL_001_92012.bmp,target,Target,Place,0-Back,None,0,VM Stimuli/PL_001_92012.bmp,4,0,4,0,0,3,3,3,,,,,,,,,,,,,,,,,,,,,,,,,,,,,,,,,,,,,,,,,,,,,,,,,,,,,,,,,,,,,,,,,,,,,,,,,,,,,,,,2026-01-20_12h22.45.472,,,,,,,,135.55696175061166,135.56712679099292,136.0519547080621,,,,,136.07971137575805,,,,,,,,,,,,,,,543211,1,Right,1,2026-01-20_12h22.45.472,EmoNback_Behavioral,,2025.1.1,90.63091634475249,2026-01-20 12h23.01.158604 -0600,
4,4,0,5,1,VM Stimuli/PL_004_92023.bmp,nonlure,nontarget,Place,0-Back,None,0,VM Stimuli/PL_001_92012.bmp,4,0,4,0,0,4,4,4,136.07971137575805,,,,,,,,,,,,,,,,,,,,,,,,,,,,,,,,,,,,,,,,,,,,,,,,,,,,,,,,,,,,,,136.05332854110748,,136.05338191613555,136.05769166629761,136.05778000038117,136.06470287498087,136.07971137575805,136.07971137575805,136.07971137575805,136.07971137575805,138.05820075049996,None,0,2,NA,NA,NA,2026-01-20_12h22.45.472,12:25:19,1,1,4,5,VM Stimuli/PL_004_92023.bmp,Place,,,,,,,,,,,,,,,,,,,,,,,543211,1,Right,1,2026-01-20_12h22.45.472,EmoNback_Behavioral,,2025.1.1,90.63091634475249,2026-01-20 12h23.01.158604 -0600,
4,4,0,5,1,VM Stimuli/PL_004_92023.bmp,nonlure,nontarget,Place,0-Back,None,0,VM Stimuli/PL_001_92012.bmp,4,0,4,0,0,4,4,4,,,,,,,,,,,,,,,,,,,,,,,,,,,,,,,,,,,,,,,,,,,,,,,,,,,,,,,,,,,,,,,,,,,,,,,,,,,,,,,,2026-01-20_12h22.45.472,,,,,,,,138.05888608284295,138.06926404125988,138.55733270850033,,,,,138.5816371664405,,,,,,,,,,,,,,,543211,1,Right,1,2026-01-20_12h22.45.472,EmoNback_Behavioral,,2025.1.1,90.63091634475249,2026-01-20 12h23.01.158604 -0600,
5,5,0,6,1,VM Stimuli/PL_005_92024.bmp,nonlure,nontarget,Place,0-Back,None,0,VM Stimuli/PL_001_92012.bmp,4,0,4,0,0,5,5,5,138.5816371664405,,,,,,,,,,,,,,,,,,,,,,,,,,,,,,,,,,,,,,,,,,,,,,,,,,,,,,,,,,,,,,138.55830324999988,,138.55834950041026,138.56142341624945,138.56149095855653,138.56685570813715,138.5816371664405,138.5816371664405,138.5816371664405,138.5816371664405,140.56244716607034,None,0,2,NA,NA,NA,2026-01-20_12h22.45.472,12:25:21,1,1,4,6,VM Stimuli/PL_005_92024.bmp,Place,,,,,,,,,,,,,,,,,,,,,,,543211,1,Right,1,2026-01-20_12h22.45.472,EmoNback_Behavioral,,2025.1.1,90.63091634475249,2026-01-20 12h23.01.158604 -0600,
5,5,0,6,1,VM Stimuli/PL_005_92024.bmp,nonlure,nontarget,Place,0-Back,None,0,VM Stimuli/PL_001_92012.bmp,4,0,4,0,0,5,5,5,,,,,,,,,,,,,,,,,,,,,,,,,,,,,,,,,,,,,,,,,,,,,,,,,,,,,,,,,,,,,,,,,,,,,,,,,,,,,,,,2026-01-20_12h22.45.472,,,,,,,,140.56310741603374,140.57300708349794,141.05632795859128,,,,,141.08030416630208,,,,,,,,,,,,,,,543211,1,Right,1,2026-01-20_12h22.45.472,EmoNback_Behavioral,,2025.1.1,90.63091634475249,2026-01-20 12h23.01.158604 -0600,
6,6,0,7,1,VM Stimuli/PL_001_92012.bmp,target,Target,Place,0-Back,None,0,VM Stimuli/PL_001_92012.bmp,4,0,4,0,0,6,6,6,141.08030416630208,,,,,,,,,,,,,,,,,,,,,,,,,,,,,,,,,,,,,,,,,,,,,,,,,,,,,,,,,,,,,,141.05741808284074,,141.05746529158205,141.06066579092294,141.0607227506116,141.06552895810455,141.08030416630208,141.08030416630208,141.08030416630208,141.08030416630208,143.06340325064957,None,0,1,NA,NA,NA,2026-01-20_12h22.45.472,12:25:24,1,1,4,7,VM Stimuli/PL_001_92012.bmp,Place,,,,,,,,,,,,,,,,,,,,,,,543211,1,Right,1,2026-01-20_12h22.45.472,EmoNback_Behavioral,,2025.1.1,90.63091634475249,2026-01-20 12h23.01.158604 -0600,
6,6,0,7,1,VM Stimuli/PL_001_92012.bmp,target,Target,Place,0-Back,None,0,VM Stimuli/PL_001_92012.bmp,4,0,4,0,0,6,6,6,,,,,,,,,,,,,,,,,,,,,,,,,,,,,,,,,,,,,,,,,,,,,,,,,,,,,,,,,,,,,,,,,,,,,,,,,,,,,,,,2026-01-20_12h22.45.472,,,,,,,,143.06411470845342,143.0743203330785,143.56679958291352,,,,,,,,,,,,,,,,,,,,543211,1,Right,1,2026-01-20_12h22.45.472,EmoNback_Behavioral,,2025.1.1,90.63091634475249,2026-01-20 12h23.01.158604 -0600,
7,7,0,8,1,VM Stimuli/PL_002_92014.bmp,nonlure,nontarget,Place,0-Back,None,0,VM Stimuli/PL_001_92012.bmp,4,0,4,0,0,7,7,7,143.59239912498742,,,,,,,,,,,,,,,,,,,,,,,,,,,,,,,,,,,,,,,,,,,,,,,,,,,,,,,,,,,,,,143.56776574999094,,143.56781170796603,143.5709839584306,143.57103983312845,143.57789162546396,143.59239912498742,143.59239912498742,143.59239912498742,143.59239912498742,145.57846029102802,None,0,2,NA,NA,NA,2026-01-20_12h22.45.472,12:25:26,1,1,4,8,VM Stimuli/PL_002_92014.bmp,Place,,,,,,,,,,,,,,,,,,,,,,,543211,1,Right,1,2026-01-20_12h22.45.472,EmoNback_Behavioral,,2025.1.1,90.63091634475249,2026-01-20 12h23.01.158604 -0600,
7,7,0,8,1,VM Stimuli/PL_002_92014.bmp,nonlure,nontarget,Place,0-Back,None,0,VM Stimuli/PL_001_92012.bmp,4,0,4,0,0,7,7,7,,,,,,,,,,,,,,,,,,,,,,,,,,,,,,,,,,,,,,,,,,,,,,,,,,,,,,,,,,,,,,,,,,,,,,,,,,,,,,,,2026-01-20_12h22.45.472,,,,,,,,145.57910550013185,145.58897525072098,146.0780067499727,,,,,,,,,,,,,,,,,,,,543211,1,Right,1,2026-01-20_12h22.45.472,EmoNback_Behavioral,,2025.1.1,90.63091634475249,2026-01-20 12h23.01.158604 -0600,
8,8,0,9,1,VM Stimuli/PL_004_92023.bmp,lure,nontarget,Place,0-Back,None,0,VM Stimuli/PL_001_92012.bmp,4,0,4,0,0,8,8,8,146.10259900055826,,,,,,,,,,,,,,,,,,,,,,,,,,,,,,,,,,,,,,,,,,,,,,,,,,,,,,,,,,,,,,146.07903745863587,,146.07908416632563,146.0821377914399,146.08219933323562,146.08794766664505,146.10259900055826,146.10259900055826,146.10259900055826,146.10259900055826,148.09339662548155,None,0,2,NA,NA,NA,2026-01-20_12h22.45.472,12:25:29,1,1,4,9,VM Stimuli/PL_004_92023.bmp,Place,,,,,,,,,,,,,,,,,,,,,,,543211,1,Right,1,2026-01-20_12h22.45.472,EmoNback_Behavioral,,2025.1.1,90.63091634475249,2026-01-20 12h23.01.158604 -0600,
8,8,0,9,1,VM Stimuli/PL_004_92023.bmp,lure,nontarget,Place,0-Back,None,0,VM Stimuli/PL_001_92012.bmp,4,0,4,0,0,8,8,8,,,,,,,,,,,,,,,,,,,,,,,,,,,,,,,,,,,,,,,,,,,,,,,,,,,,,,,,,,,,,,,,,,,,,,,,,,,,,,,,2026-01-20_12h22.45.472,,,,,,,,148.0945222498849,148.10611241590232,148.58442675042897,,,,,,,,,,,,,,,,,,,,543211,1,Right,1,2026-01-20_12h22.45.472,EmoNback_Behavioral,,2025.1.1,90.63091634475249,2026-01-20 12h23.01.158604 -0600,
9,9,0,10,1,VM Stimuli/PL_006_92025.bmp,lure,nontarget,Place,0-Back,None,0,VM Stimuli/PL_001_92012.bmp,4,0,4,0,0,9,9,9,148.60891924984753,,,,,,,,,,,,,,,,,,,,,,,,,,,,,,,,,,,,,,,,,,,,,,,,,,,,,,,,,,,,,,148.5853955000639,,148.5854422915727,148.5887096254155,148.588766166009,148.59402437508106,148.60891924984753,148.60891924984753,148.60891924984753,148.60891924984753,150.58990554139018,None,0,2,NA,NA,NA,2026-01-20_12h22.45.472,12:25:31,1,1,4,10,VM Stimuli/PL_006_92025.bmp,Place,,,,,,,,,,,,,,,,,,,,,,,543211,1,Right,1,2026-01-20_12h22.45.472,EmoNback_Behavioral,,2025.1.1,90.63091634475249,2026-01-20 12h23.01.158604 -0600,
9,9,0,10,1,VM Stimuli/PL_006_92025.bmp,lure,nontarget,Place,0-Back,None,0,VM Stimuli/PL_001_92012.bmp,4,0,4,0,0,9,9,9,,,,,,,,,,,,,,,,,,,,,,,,,,,,,,,,,,,,,,,,,,,,,,,,,,,,,,,,,,,,,,,,,,,,,,,,,,,,,,,,2026-01-20_12h22.45.472,,,,,,,,150.5905947908759,150.60077979136258,151.0853587910533,,,,,151.11869429145008,,,,,,,,,,,,,,,543211,1,Right,1,2026-01-20_12h22.45.472,EmoNback_Behavioral,,2025.1.1,90.63091634475249,2026-01-20 12h23.01.158604 -0600,
0,0,0,1,1,VM Stimuli/AM228_NC.bmp,nonlure,nontarget,NeutFace,2-Back,None,0,,5,0,5,0,0,0,0,0,151.6276924163103,,,,,,,,,,,,,,,,,,,,,,,,,,,,,,,,,,,,,,,,,,,,,,,,,,,,,,,,,,,151.10770425014198,151.11869429145008,151.60641462542117,151.61662608291954,151.6276924163103,154.09081516601145,154.18793608341366,154.18798354174942,154.19843587558717,154.21151775028557,154.21151775028557,154.21151775028557,154.21151775028557,156.18958825059235,None,0,2,NA,NA,NA,2026-01-20_12h22.45.472,12:25:37,1,1,5,1,VM Stimuli/AM228_NC.bmp,NeutFace,,,,,,,,,151.08970062527806,151.08977616671473,,,151.6276924163103,,,,,,,,,,543211,1,Right,1,2026-01-20_12h22.45.472,EmoNback_Behavioral,,2025.1.1,90.63091634475249,2026-01-20 12h23.01.158604 -0600,
0,0,0,1,1,VM Stimuli/AM228_NC.bmp,nonlure,nontarget,NeutFace,2-Back,None,0,,5,0,5,0,0,0,0,0,,,,,,,,,,,,,,,,,,,,,,,,,,,,,,,,,,,,,,,,,,,,,,,,,,,,,,,,,,,,,,,,,,,,,,,,,,,,,,,,2026-01-20_12h22.45.472,,,,,,,,156.19030787516385,156.20020837523043,156.68344316631556,,,,,156.71729762572795,,,,,,,,,,,,,,,543211,1,Right,1,2026-01-20_12h22.45.472,EmoNback_Behavioral,,2025.1.1,90.63091634475249,2026-01-20 12h23.01.158604 -0600,
1,1,0,2,1,VM Stimuli/26M_NC.bmp,nonlure,nontarget,NeutFace,2-Back,None,0,,5,0,5,0,0,1,1,1,156.71729762572795,,,,,,,,,,,,,,,,,,,,,,,,,,,,,,,,,,,,,,,,,,,,,,,,,,,,,,,,,,,,,,156.68404370825738,,156.6840667501092,156.703380625695,156.70341300033033,156.70634870789945,156.71729762572795,156.71729762572795,156.71729762572795,156.71729762572795,158.70973329152912,None,0,2,NA,NA,NA,2026-01-20_12h22.45.472,12:25:39,1,1,5,2,VM Stimuli/26M_NC.bmp,NeutFace,,,,,,,,,,,,,,,,,,,,,,,543211,1,Right,1,2026-01-20_12h22.45.472,EmoNback_Behavioral,,2025.1.1,90.63091634475249,2026-01-20 12h23.01.158604 -0600,
1,1,0,2,1,VM Stimuli/26M_NC.bmp,nonlure,nontarget,NeutFace,2-Back,None,0,,5,0,5,0,0,1,1,1,,,,,,,,,,,,,,,,,,,,,,,,,,,,,,,,,,,,,,,,,,,,,,,,,,,,,,,,,,,,,,,,,,,,,,,,,,,,,,,,2026-01-20_12h22.45.472,,,,,,,,158.71050366666168,158.722126041539,159.2129475409165,,,,,,,,,,,,,,,,,,,,543211,1,Right,1,2026-01-20_12h22.45.472,EmoNback_Behavioral,,2025.1.1,90.63091634475249,2026-01-20 12h23.01.158604 -0600,
2,2,0,3,1,VM Stimuli/AM228_NC.bmp,target,Target,NeutFace,2-Back,None,0,,5,0,5,0,0,2,2,2,159.26028720848262,,,,,,,,,,,,,,,,,,,,,,,,,,,,,,,,,,,,,,,,,,,,,,,,,,,,,,,,,,,,,,159.21410758327693,,159.21417037490755,159.24460141640157,159.24465116672218,159.24735891632736,159.26028720848262,159.26028720848262,159.26028720848262,159.26028720848262,161.2478617914021,None,0,1,NA,NA,NA,2026-01-20_12h22.45.472,12:25:42,1,1,5,3,VM Stimuli/AM228_NC.bmp,NeutFace,,,,,,,,,,,,,,,,,,,,,,,543211,1,Right,1,2026-01-20_12h22.45.472,EmoNback_Behavioral,,2025.1.1,90.63091634475249,2026-01-20 12h23.01.158604 -0600,
2,2,0,3,1,VM Stimuli/AM228_NC.bmp,target,Target,NeutFace,2-Back,None,0,,5,0,5,0,0,2,2,2,,,,,,,,,,,,,,,,,,,,,,,,,,,,,,,,,,,,,,,,,,,,,,,,,,,,,,,,,,,,,,,,,,,,,,,,,,,,,,,,2026-01-20_12h22.45.472,,,,,,,,161.24921291600913,161.25957500003278,161.74651270825416,,,,,,,,,,,,,,,,,,,,543211,1,Right,1,2026-01-20_12h22.45.472,EmoNback_Behavioral,,2025.1.1,90.63091634475249,2026-01-20 12h23.01.158604 -0600,
3,3,0,4,1,VM Stimuli/LF227_NC.bmp,nonlure,nontarget,NeutFace,2-Back,None,0,,5,0,5,0,0,3,3,3,161.8021134585142,,,,,,,,,,,,,,,,,,,,,,,,,,,,,,,,,,,,,,,,,,,,,,,,,,,,,,,,,,,,,,161.74824312515557,,161.74830745812505,161.78446370828897,161.78450804110616,161.78962225001305,161.8021134585142,161.8021134585142,161.8021134585142,161.8021134585142,163.80196795798838,None,0,2,NA,NA,NA,2026-01-20_12h22.45.472,12:25:44,1,1,5,4,VM Stimuli/LF227_NC.bmp,NeutFace,,,,,,,,,,,,,,,,,,,,,,,543211,1,Right,1,2026-01-20_12h22.45.472,EmoNback_Behavioral,,2025.1.1,90.63091634475249,2026-01-20 12h23.01.158604 -0600,
3,3,0,4,1,VM Stimuli/LF227_NC.bmp,nonlure,nontarget,NeutFace,2-Back,None,0,,5,0,5,0,0,3,3,3,,,,,,,,,,,,,,,,,,,,,,,,,,,,,,,,,,,,,,,,,,,,,,,,,,,,,,,,,,,,,,,,,,,,,,,,,,,,,,,,2026-01-20_12h22.45.472,,,,,,,,163.80274162534624,163.81371912546456,164.28508504107594,,,,,,,,,,,,,,,,,,,,543211,1,Right,1,2026-01-20_12h22.45.472,EmoNback_Behavioral,,2025.1.1,90.63091634475249,2026-01-20 12h23.01.158604 -0600,
4,4,0,5,1,VM Stimuli/26M_NC.bmp,lure,nontarget,NeutFace,2-Back,None,0,,5,0,5,0,0,4,4,4,164.33161895815283,,,,,,,,,,,,,,,,,,,,,,,,,,,,,,,,,,,,,,,,,,,,,,,,,,,,,,,,,,,,,,164.28597479127347,,164.28602362517267,164.31523395795375,164.31528162490577,164.31877879146487,164.33161895815283,164.33161895815283,164.33161895815283,164.33161895815283,166.3226618329063,None,0,2,NA,NA,NA,2026-01-20_12h22.45.472,12:25:47,1,1,5,5,VM Stimuli/26M_NC.bmp,NeutFace,,,,,,,,,,,,,,,,,,,,,,,543211,1,Right,1,2026-01-20_12h22.45.472,EmoNback_Behavioral,,2025.1.1,90.63091634475249,2026-01-20 12h23.01.158604 -0600,
4,4,0,5,1,VM Stimuli/26M_NC.bmp,lure,nontarget,NeutFace,2-Back,None,0,,5,0,5,0,0,4,4,4,,,,,,,,,,,,,,,,,,,,,,,,,,,,,,,,,,,,,,,,,,,,,,,,,,,,,,,,,,,,,,,,,,,,,,,,,,,,,,,,2026-01-20_12h22.45.472,,,,,,,,166.3234361661598,166.3343733754009,166.81853258330375,,,,,,,,,,,,,,,,,,,,543211,1,Right,1,2026-01-20_12h22.45.472,EmoNback_Behavioral,,2025.1.1,90.63091634475249,2026-01-20 12h23.01.158604 -0600,
5,5,0,6,1,VM Stimuli/LF227_NC.bmp,target,Target,NeutFace,2-Back,None,0,,5,0,5,0,0,5,5,5,166.86373529117554,,,,,,,,,,,,,,,,,,,,,,,,,,,,,,,,,,,,,,,,,,,,,,,,,,,,,,,,,,,,,,166.8194044167176,,166.81945275049657,166.84816841594875,166.84821675065905,166.8509746659547,166.86373529117554,166.86373529117554,166.86373529117554,166.86373529117554,168.85588520858437,None,0,1,NA,NA,NA,2026-01-20_12h22.45.472,12:25:49,1,1,5,6,VM Stimuli/LF227_NC.bmp,NeutFace,,,,,,,,,,,,,,,,,,,,,,,543211,1,Right,1,2026-01-20_12h22.45.472,EmoNback_Behavioral,,2025.1.1,90.63091634475249,2026-01-20 12h23.01.158604 -0600,
5,5,0,6,1,VM Stimuli/LF227_NC.bmp,target,Target,NeutFace,2-Back,None,0,,5,0,5,0,0,5,5,5,,,,,,,,,,,,,,,,,,,,,,,,,,,,,,,,,,,,,,,,,,,,,,,,,,,,,,,,,,,,,,,,,,,,,,,,,,,,,,,,2026-01-20_12h22.45.472,,,,,,,,168.8565795412287,168.8667227504775,169.35180841665715,,,,,,,,,,,,,,,,,,,,543211,1,Right,1,2026-01-20_12h22.45.472,EmoNback_Behavioral,,2025.1.1,90.63091634475249,2026-01-20 12h23.01.158604 -0600,
6,6,0,7,1,VM Stimuli/AF206_NC.bmp,nonlure,nontarget,NeutFace,2-Back,None,0,,5,0,5,0,0,6,6,6,169.39863833319396,,,,,,,,,,,,,,,,,,,,,,,,,,,,,,,,,,,,,,,,,,,,,,,,,,,,,,,,,,,,,,169.35285654105246,,169.3529172083363,169.38137079123408,169.38142025005072,169.38566600065678,169.39863833319396,169.39863833319396,169.39863833319396,169.39863833319396,171.38429712504148,None,0,2,NA,NA,NA,2026-01-20_12h22.45.472,12:25:52,1,1,5,7,VM Stimuli/AF206_NC.bmp,NeutFace,,,,,,,,,,,,,,,,,,,,,,,543211,1,Right,1,2026-01-20_12h22.45.472,EmoNback_Behavioral,,2025.1.1,90.63091634475249,2026-01-20 12h23.01.158604 -0600,
6,6,0,7,1,VM Stimuli/AF206_NC.bmp,nonlure,nontarget,NeutFace,2-Back,None,0,,5,0,5,0,0,6,6,6,,,,,,,,,,,,,,,,,,,,,,,,,,,,,,,,,,,,,,,,,,,,,,,,,,,,,,,,,,,,,,,,,,,,,,,,,,,,,,,,2026-01-20_12h22.45.472,,,,,,,,171.3849615417421,171.40186216589063,171.89073800016195,,,,,,,,,,,,,,,,,,,,543211,1,Right,1,2026-01-20_12h22.45.472,EmoNback_Behavioral,,2025.1.1,90.63091634475249,2026-01-20 12h23.01.158604 -0600,
7,7,0,8,1,VM Stimuli/AF206_NC.bmp,lure,nontarget,NeutFace,2-Back,None,0,,5,0,5,0,0,7,7,7,171.9445301257074,,,,,,,,,,,,,,,,,,,,,,,,,,,,,,,,,,,,,,,,,,,,,,,,,,,,,,,,,,,,,,171.89219016674906,,171.8922389158979,171.92988741584122,171.92993462551385,171.93239283375442,171.9445301257074,171.9445301257074,171.9445301257074,171.9445301257074,173.93500391673297,None,0,2,NA,NA,NA,2026-01-20_12h22.45.472,12:25:55,1,1,5,8,VM Stimuli/AF206_NC.bmp,NeutFace,,,,,,,,,,,,,,,,,,,,,,,543211,1,Right,1,2026-01-20_12h22.45.472,EmoNback_Behavioral,,2025.1.1,90.63091634475249,2026-01-20 12h23.01.158604 -0600,
7,7,0,8,1,VM Stimuli/AF206_NC.bmp,lure,nontarget,NeutFace,2-Back,None,0,,5,0,5,0,0,7,7,7,,,,,,,,,,,,,,,,,,,,,,,,,,,,,,,,,,,,,,,,,,,,,,,,,,,,,,,,,,,,,,,,,,,,,,,,,,,,,,,,2026-01-20_12h22.45.472,,,,,,,,173.9356660414487,173.9465427501127,174.43484354112297,,,,,,,,,,,,,,,,,,,,543211,1,Right,1,2026-01-20_12h22.45.472,EmoNback_Behavioral,,2025.1.1,90.63091634475249,2026-01-20 12h23.01.158604 -0600,
8,8,0,9,1,VM Stimuli/BM03_NC.bmp,nonlure,nontarget,NeutFace,2-Back,None,0,,5,0,5,0,0,8,8,8,174.48149891663343,,,,,,,,,,,,,,,,,,,,,,,,,,,,,,,,,,,,,,,,,,,,,,,,,,,,,,,,,,,,,,174.4357704585418,,174.43582083284855,174.46360199991614,174.46366941649467,174.46859241649508,174.48149891663343,174.48149891663343,174.48149891663343,174.48149891663343,176.46775812562555,None,0,2,NA,NA,NA,2026-01-20_12h22.45.472,12:25:57,1,1,5,9,VM Stimuli/BM03_NC.bmp,NeutFace,,,,,,,,,,,,,,,,,,,,,,,543211,1,Right,1,2026-01-20_12h22.45.472,EmoNback_Behavioral,,2025.1.1,90.63091634475249,2026-01-20 12h23.01.158604 -0600,
8,8,0,9,1,VM Stimuli/BM03_NC.bmp,nonlure,nontarget,NeutFace,2-Back,None,0,,5,0,5,0,0,8,8,8,,,,,,,,,,,,,,,,,,,,,,,,,,,,,,,,,,,,,,,,,,,,,,,,,,,,,,,,,,,,,,,,,,,,,,,,,,,,,,,,2026-01-20_12h22.45.472,,,,,,,,176.4684558333829,176.47827462572604,176.9633398335427,,,,,177.01155016664416,,,,,,,,,,,,,,,543211,1,Right,1,2026-01-20_12h22.45.472,EmoNback_Behavioral,,2025.1.1,90.63091634475249,2026-01-20 12h23.01.158604 -0600,
9,9,0,10,1,VM Stimuli/WF012_NC.bmp,nonlure,nontarget,NeutFace,2-Back,None,0,,5,0,5,0,0,9,9,9,177.01155016664416,,,,,,,,,,,,,,,,,,,,,,,,,,,,,,,,,,,,,,,,,,,,,,,,,,,,,,,,,,,,,,176.96454775054008,,176.96460754144937,176.9935655836016,176.99361474998295,176.99880874995142,177.01155016664416,177.01155016664416,177.01155016664416,177.01155016664416,179.00105208344758,None,0,2,NA,NA,NA,2026-01-20_12h22.45.472,12:26:00,1,1,5,10,VM Stimuli/WF012_NC.bmp,NeutFace,,,,,,,,,,,,,,,,,,,,,,,543211,1,Right,1,2026-01-20_12h22.45.472,EmoNback_Behavioral,,2025.1.1,90.63091634475249,2026-01-20 12h23.01.158604 -0600,
9,9,0,10,1,VM Stimuli/WF012_NC.bmp,nonlure,nontarget,NeutFace,2-Back,None,0,,5,0,5,0,0,9,9,9,,,,,,,,,,,,,,,,,,,,,,,,,,,,,,,,,,,,,,,,,,,,,,,,,,,,,,,,,,,,,,,,,,,,,,,,,,,,,,,,2026-01-20_12h22.45.472,,,,,,,,179.0016874158755,179.01841325033456,179.4938899166882,,,,,,,,,,,,,,,,,,,,543211,1,Right,1,2026-01-20_12h22.45.472,EmoNback_Behavioral,,2025.1.1,90.63091634475249,2026-01-20 12h23.01.158604 -0600,
0,0,0,1,1,VM Stimuli/BF003_FO.bmp,nonlure,nontarget,NegFace,0-Back,None,0,VM Stimuli/39M_FO.bmp,6,0,6,0,0,0,0,0,180.04223454091698,,,,,,,,,,,,,,,,,,,,,,,,,,,,,,,,,,,,,,,,,,,,,,,,,,,,,,,,,,,179.5155460415408,179.52656425070018,180.01003162562847,180.02021941635758,,180.02027416601777,180.03084708284587,182.50527491606772,182.5114253750071,182.52556470874697,182.52556470874697,182.52556470874697,182.52556470874697,184.5184292504564,None,0,2,NA,NA,NA,2026-01-20_12h22.45.472,12:26:05,1,1,6,1,VM Stimuli/BF003_FO.bmp,NegFace,,,,184.52984479162842,184.52984479162842,184.52984479162842,184.52984479162842,,179.49845695868134,179.49853875022382,180.04223454091698,180.04223454091698,180.04223454091698,,,,,,,,,,543211,1,Right,1,2026-01-20_12h22.45.472,EmoNback_Behavioral,,2025.1.1,90.63091634475249,2026-01-20 12h23.01.158604 -0600,
0,0,0,1,1,VM Stimuli/BF003_FO.bmp,nonlure,nontarget,NegFace,0-Back,None,0,VM Stimuli/39M_FO.bmp,6,0,6,0,0,0,0,0,,,,,,,,,,,,,,,,,,,,,,,,,,,,,,,,,,,,,,,,,,,,,,,,,,,,,,,,,,,,,,,,,,,,,,,,,,,,,,,,2026-01-20_12h22.45.472,,,,,,,,184.51905841659755,184.52984479162842,185.01652112510055,,,,,185.0409278748557,,,,,,,,,,,,,,,543211,1,Right,1,2026-01-20_12h22.45.472,EmoNback_Behavioral,,2025.1.1,90.63091634475249,2026-01-20 12h23.01.158604 -0600,
1,1,0,2,1,VM Stimuli/HM05_FO.bmp,nonlure,nontarget,NegFace,0-Back,None,0,VM Stimuli/39M_FO.bmp,6,0,6,0,0,1,1,1,185.0409278748557,,,,,,,,,,,,,,,,,,,,,,,,,,,,,,,,,,,,,,,,,,,,,,,,,,,,,,,,,,,,,,185.01746341586113,,185.01750954147428,185.0206252913922,185.02068216633052,185.0259300004691,185.0409278748557,185.0409278748557,185.0409278748557,185.0409278748557,187.02722620870918,None,0,2,NA,NA,NA,2026-01-20_12h22.45.472,12:26:08,1,1,6,2,VM Stimuli/HM05_FO.bmp,NegFace,,,,,,,,,,,,,,,,,,,,,,,543211,1,Right,1,2026-01-20_12h22.45.472,EmoNback_Behavioral,,2025.1.1,90.63091634475249,2026-01-20 12h23.01.158604 -0600,
1,1,0,2,1,VM Stimuli/HM05_FO.bmp,nonlure,nontarget,NegFace,0-Back,None,0,VM Stimuli/39M_FO.bmp,6,0,6,0,0,1,1,1,,,,,,,,,,,,,,,,,,,,,,,,,,,,,,,,,,,,,,,,,,,,,,,,,,,,,,,,,,,,,,,,,,,,,,,,,,,,,,,,2026-01-20_12h22.45.472,,,,,,,,187.02784858364612,187.03831049986184,187.52760141622275,,,,,,,,,,,,,,,,,,,,543211,1,Right,1,2026-01-20_12h22.45.472,EmoNback_Behavioral,,2025.1.1,90.63091634475249,2026-01-20 12h23.01.158604 -0600,
2,2,0,3,1,VM Stimuli/HM05_FO.bmp,lure,nontarget,NegFace,0-Back,None,0,VM Stimuli/39M_FO.bmp,6,0,6,0,0,2,2,2,187.55049737542868,,,,,,,,,,,,,,,,,,,,,,,,,,,,,,,,,,,,,,,,,,,,,,,,,,,,,,,,,,,,,,187.52877583354712,,187.52883441653103,187.5320624159649,187.53211866598576,187.5354729583487,187.55049737542868,187.55049737542868,187.55049737542868,187.55049737542868,189.53466712497175,None,0,2,NA,NA,NA,2026-01-20_12h22.45.472,12:26:10,1,1,6,3,VM Stimuli/HM05_FO.bmp,NegFace,,,,,,,,,,,,,,,,,,,,,,,543211,1,Right,1,2026-01-20_12h22.45.472,EmoNback_Behavioral,,2025.1.1,90.63091634475249,2026-01-20 12h23.01.158604 -0600,
2,2,0,3,1,VM Stimuli/HM05_FO.bmp,lure,nontarget,NegFace,0-Back,None,0,VM Stimuli/39M_FO.bmp,6,0,6,0,0,2,2,2,,,,,,,,,,,,,,,,,,,,,,,,,,,,,,,,,,,,,,,,,,,,,,,,,,,,,,,,,,,,,,,,,,,,,,,,,,,,,,,,2026-01-20_12h22.45.472,,,,,,,,189.53537283372134,189.54531237576157,190.03266254160553,,,,,,,,,,,,,,,,,,,,543211,1,Right,1,2026-01-20_12h22.45.472,EmoNback_Behavioral,,2025.1.1,90.63091634475249,2026-01-20 12h23.01.158604 -0600,
3,3,0,4,1,VM Stimuli/10F_FO.bmp,nonlure,nontarget,NegFace,0-Back,None,0,VM Stimuli/39M_FO.bmp,6,0,6,0,0,3,3,3,190.05792837496847,,,,,,,,,,,,,,,,,,,,,,,,,,,,,,,,,,,,,,,,,,,,,,,,,,,,,,,,,,,,,,190.03370329085737,,190.03375029098243,190.03691145870835,190.03696762491018,190.04311862494797,190.05792837496847,190.05792837496847,190.05792837496847,190.05792837496847,192.0460100006312,None,0,2,NA,NA,NA,2026-01-20_12h22.45.472,12:26:13,1,1,6,4,VM Stimuli/10F_FO.bmp,NegFace,,,,,,,,,,,,,,,,,,,,,,,543211,1,Right,1,2026-01-20_12h22.45.472,EmoNback_Behavioral,,2025.1.1,90.63091634475249,2026-01-20 12h23.01.158604 -0600,
3,3,0,4,1,VM Stimuli/10F_FO.bmp,nonlure,nontarget,NegFace,0-Back,None,0,VM Stimuli/39M_FO.bmp,6,0,6,0,0,3,3,3,,,,,,,,,,,,,,,,,,,,,,,,,,,,,,,,,,,,,,,,,,,,,,,,,,,,,,,,,,,,,,,,,,,,,,,,,,,,,,,,2026-01-20_12h22.45.472,,,,,,,,192.04667950049043,192.0567990830168,192.53900691587478,,,,,,,,,,,,,,,,,,,,543211,1,Right,1,2026-01-20_12h22.45.472,EmoNback_Behavioral,,2025.1.1,90.63091634475249,2026-01-20 12h23.01.158604 -0600,
4,4,0,5,1,VM Stimuli/BF09_FO.bmp,nonlure,nontarget,NegFace,0-Back,None,0,VM Stimuli/39M_FO.bmp,6,0,6,0,0,4,4,4,192.5637545408681,,,,,,,,,,,,,,,,,,,,,,,,,,,,,,,,,,,,,,,,,,,,,,,,,,,,,,,,,,,,,,192.5399708757177,,192.54001825023443,192.54306541662663,192.54312183335423,192.54867204092443,192.5637545408681,192.5637545408681,192.5637545408681,192.5637545408681,194.545023416169,None,0,2,NA,NA,NA,2026-01-20_12h22.45.472,12:26:15,1,1,6,5,VM Stimuli/BF09_FO.bmp,NegFace,,,,,,,,,,,,,,,,,,,,,,,543211,1,Right,1,2026-01-20_12h22.45.472,EmoNback_Behavioral,,2025.1.1,90.63091634475249,2026-01-20 12h23.01.158604 -0600,
4,4,0,5,1,VM Stimuli/BF09_FO.bmp,nonlure,nontarget,NegFace,0-Back,None,0,VM Stimuli/39M_FO.bmp,6,0,6,0,0,4,4,4,,,,,,,,,,,,,,,,,,,,,,,,,,,,,,,,,,,,,,,,,,,,,,,,,,,,,,,,,,,,,,,,,,,,,,,,,,,,,,,,2026-01-20_12h22.45.472,,,,,,,,194.54569100029767,194.55586012545973,195.03926650062203,,,,,195.063716375269,,,,,,,,,,,,,,,543211,1,Right,1,2026-01-20_12h22.45.472,EmoNback_Behavioral,,2025.1.1,90.63091634475249,2026-01-20 12h23.01.158604 -0600,
5,5,0,6,1,VM Stimuli/28M_FO.bmp,nonlure,nontarget,NegFace,0-Back,None,0,VM Stimuli/39M_FO.bmp,6,0,6,0,0,5,5,5,195.063716375269,,,,,,,,,,,,,,,,,,,,,,,,,,,,,,,,,,,,,,,,,,,,,,,,,,,,,,,,,,,,,,195.04020179156214,,195.04024741612375,195.04325483366847,195.04331066645682,195.0488030835986,195.063716375269,195.063716375269,195.063716375269,195.063716375269,197.05071633309126,None,0,2,NA,NA,NA,2026-01-20_12h22.45.472,12:26:18,1,1,6,6,VM Stimuli/28M_FO.bmp,NegFace,,,,,,,,,,,,,,,,,,,,,,,543211,1,Right,1,2026-01-20_12h22.45.472,EmoNback_Behavioral,,2025.1.1,90.63091634475249,2026-01-20 12h23.01.158604 -0600,
5,5,0,6,1,VM Stimuli/28M_FO.bmp,nonlure,nontarget,NegFace,0-Back,None,0,VM Stimuli/39M_FO.bmp,6,0,6,0,0,5,5,5,,,,,,,,,,,,,,,,,,,,,,,,,,,,,,,,,,,,,,,,,,,,,,,,,,,,,,,,,,,,,,,,,,,,,,,,,,,,,,,,2026-01-20_12h22.45.472,,,,,,,,197.0513687087223,197.0680940002203,197.54498487524688,,,,,,,,,,,,,,,,,,,,543211,1,Right,1,2026-01-20_12h22.45.472,EmoNback_Behavioral,,2025.1.1,90.63091634475249,2026-01-20 12h23.01.158604 -0600,
6,6,0,7,1,VM Stimuli/BF003_FO.bmp,lure,nontarget,NegFace,0-Back,None,0,VM Stimuli/39M_FO.bmp,6,0,6,0,0,6,6,6,197.56883529108018,,,,,,,,,,,,,,,,,,,,,,,,,,,,,,,,,,,,,,,,,,,,,,,,,,,,,,,,,,,,,,197.54597958363593,,197.5460254587233,197.5490725003183,197.5491280835122,197.55419750045985,197.56883529108018,197.56883529108018,197.56883529108018,197.56883529108018,199.55687362514436,None,0,2,NA,NA,NA,2026-01-20_12h22.45.472,12:26:20,1,1,6,7,VM Stimuli/BF003_FO.bmp,NegFace,,,,,,,,,,,,,,,,,,,,,,,543211,1,Right,1,2026-01-20_12h22.45.472,EmoNback_Behavioral,,2025.1.1,90.63091634475249,2026-01-20 12h23.01.158604 -0600,
6,6,0,7,1,VM Stimuli/BF003_FO.bmp,lure,nontarget,NegFace,0-Back,None,0,VM Stimuli/39M_FO.bmp,6,0,6,0,0,6,6,6,,,,,,,,,,,,,,,,,,,,,,,,,,,,,,,,,,,,,,,,,,,,,,,,,,,,,,,,,,,,,,,,,,,,,,,,,,,,,,,,2026-01-20_12h22.45.472,,,,,,,,199.5575649579987,199.5677158748731,200.05543416645378,,,,,,,,,,,,,,,,,,,,543211,1,Right,1,2026-01-20_12h22.45.472,EmoNback_Behavioral,,2025.1.1,90.63091634475249,2026-01-20 12h23.01.158604 -0600,
7,7,0,8,1,VM Stimuli/39M_FO.bmp,target,Target,NegFace,0-Back,None,0,VM Stimuli/39M_FO.bmp,6,0,6,0,0,7,7,7,200.07865333370864,,,,,,,,,,,,,,,,,,,,,,,,,,,,,,,,,,,,,,,,,,,,,,,,,,,,,,,,,,,,,,200.05639712512493,,200.05644308310002,200.06035445816815,200.0604152083397,200.0637339586392,200.07865333370864,200.07865333370864,200.07865333370864,200.07865333370864,202.06250050012022,None,0,1,NA,NA,NA,2026-01-20_12h22.45.472,12:26:23,1,1,6,8,VM Stimuli/39M_FO.bmp,NegFace,,,,,,,,,,,,,,,,,,,,,,,543211,1,Right,1,2026-01-20_12h22.45.472,EmoNback_Behavioral,,2025.1.1,90.63091634475249,2026-01-20 12h23.01.158604 -0600,
7,7,0,8,1,VM Stimuli/39M_FO.bmp,target,Target,NegFace,0-Back,None,0,VM Stimuli/39M_FO.bmp,6,0,6,0,0,7,7,7,,,,,,,,,,,,,,,,,,,,,,,,,,,,,,,,,,,,,,,,,,,,,,,,,,,,,,,,,,,,,,,,,,,,,,,,,,,,,,,,2026-01-20_12h22.45.472,,,,,,,,202.06312650069594,202.07324395794421,202.56156150065362,,,,,,,,,,,,,,,,,,,,543211,1,Right,1,2026-01-20_12h22.45.472,EmoNback_Behavioral,,2025.1.1,90.63091634475249,2026-01-20 12h23.01.158604 -0600,
8,8,0,9,1,VM Stimuli/10F_FO.bmp,lure,nontarget,NegFace,0-Back,None,0,VM Stimuli/39M_FO.bmp,6,0,6,0,0,8,8,8,202.5851012505591,,,,,,,,,,,,,,,,,,,,,,,,,,,,,,,,,,,,,,,,,,,,,,,,,,,,,,,,,,,,,,202.56253200024366,,202.562577791512,202.56559274997562,202.5656490828842,202.57030904106796,202.5851012505591,202.5851012505591,202.5851012505591,202.5851012505591,204.57220387551934,None,0,2,NA,NA,NA,2026-01-20_12h22.45.472,12:26:25,1,1,6,9,VM Stimuli/10F_FO.bmp,NegFace,,,,,,,,,,,,,,,,,,,,,,,543211,1,Right,1,2026-01-20_12h22.45.472,EmoNback_Behavioral,,2025.1.1,90.63091634475249,2026-01-20 12h23.01.158604 -0600,
8,8,0,9,1,VM Stimuli/10F_FO.bmp,lure,nontarget,NegFace,0-Back,None,0,VM Stimuli/39M_FO.bmp,6,0,6,0,0,8,8,8,,,,,,,,,,,,,,,,,,,,,,,,,,,,,,,,,,,,,,,,,,,,,,,,,,,,,,,,,,,,,,,,,,,,,,,,,,,,,,,,2026-01-20_12h22.45.472,,,,,,,,204.57286212500185,204.58479666616768,205.07236870843917,,,,,,,,,,,,,,,,,,,,543211,1,Right,1,2026-01-20_12h22.45.472,EmoNback_Behavioral,,2025.1.1,90.63091634475249,2026-01-20 12h23.01.158604 -0600,
9,9,0,10,1,VM Stimuli/39M_FO.bmp,target,Target,NegFace,0-Back,None,0,VM Stimuli/39M_FO.bmp,6,0,6,0,0,9,9,9,205.0957449162379,,,,,,,,,,,,,,,,,,,,,,,,,,,,,,,,,,,,,,,,,,,,,,,,,,,,,,,,,,,,,,205.07358391676098,,205.07363170851022,205.07730866596103,205.0773657085374,205.0807216251269,205.0957449162379,205.0957449162379,205.0957449162379,205.0957449162379,207.07873691618443,None,0,1,NA,NA,NA,2026-01-20_12h22.45.472,12:26:28,1,1,6,10,VM Stimuli/39M_FO.bmp,NegFace,,,,,,,,,,,,,,,,,,,,,,,543211,1,Right,1,2026-01-20_12h22.45.472,EmoNback_Behavioral,,2025.1.1,90.63091634475249,2026-01-20 12h23.01.158604 -0600,
9,9,0,10,1,VM Stimuli/39M_FO.bmp,target,Target,NegFace,0-Back,None,0,VM Stimuli/39M_FO.bmp,6,0,6,0,0,9,9,9,,,,,,,,,,,,,,,,,,,,,,,,,,,,,,,,,,,,,,,,,,,,,,,,,,,,,,,,,,,,,,,,,,,,,,,,,,,,,,,,2026-01-20_12h22.45.472,,,,,,,,207.07965412549675,207.0898763332516,207.57246350031346,,,,,207.59952904097736,,,,,,,,,,,,,,,543211,1,Right,1,2026-01-20_12h22.45.472,EmoNback_Behavioral,,2025.1.1,90.63091634475249,2026-01-20 12h23.01.158604 -0600,
0,0,0,1,1,VM Stimuli/PL_007_92026.bmp,nonlure,nontarget,Place,2-Back,None,0,,7,0,7,0,0,0,0,0,208.10578816663474,,,,,,,,,,,,,,,,,,,,,,,,,,,,,,,,,,,,,,,,,,,,,,,,,,,,,,,,,,,207.58808762487024,207.59952904097736,208.08452041633427,208.0940888756886,208.10578816663474,210.5790768750012,210.62151491641998,210.62156079150736,210.62518616672605,210.63745575025678,210.63745575025678,210.63745575025678,210.63745575025678,212.6231136256829,None,0,2,NA,NA,NA,2026-01-20_12h22.45.472,12:26:33,1,1,7,1,VM Stimuli/PL_007_92026.bmp,Place,,,,,,,,,207.57618212513626,207.57626041583717,,,208.10578816663474,,,,,,,,,,543211,1,Right,1,2026-01-20_12h22.45.472,EmoNback_Behavioral,,2025.1.1,90.63091634475249,2026-01-20 12h23.01.158604 -0600,
0,0,0,1,1,VM Stimuli/PL_007_92026.bmp,nonlure,nontarget,Place,2-Back,None,0,,7,0,7,0,0,0,0,0,,,,,,,,,,,,,,,,,,,,,,,,,,,,,,,,,,,,,,,,,,,,,,,,,,,,,,,,,,,,,,,,,,,,,,,,,,,,,,,,2026-01-20_12h22.45.472,,,,,,,,212.62398604117334,212.6343636661768,213.12181758321822,,,,,,,,,,,,,,,,,,,,543211,1,Right,1,2026-01-20_12h22.45.472,EmoNback_Behavioral,,2025.1.1,90.63091634475249,2026-01-20 12h23.01.158604 -0600,
1,1,0,2,1,VM Stimuli/PL_007_92026.bmp,lure,nontarget,Place,2-Back,None,0,,7,0,7,0,0,1,1,1,213.1709130415693,,,,,,,,,,,,,,,,,,,,,,,,,,,,,,,,,,,,,,,,,,,,,,,,,,,,,,,,,,,,,,213.1227739583701,,213.12282462511212,213.15573483332992,213.15577845834196,213.15817529149354,213.1709130415693,213.1709130415693,213.1709130415693,213.1709130415693,215.1670215409249,None,0,2,NA,NA,NA,2026-01-20_12h22.45.472,12:26:36,1,1,7,2,VM Stimuli/PL_007_92026.bmp,Place,,,,,,,,,,,,,,,,,,,,,,,543211,1,Right,1,2026-01-20_12h22.45.472,EmoNback_Behavioral,,2025.1.1,90.63091634475249,2026-01-20 12h23.01.158604 -0600,
1,1,0,2,1,VM Stimuli/PL_007_92026.bmp,lure,nontarget,Place,2-Back,None,0,,7,0,7,0,0,1,1,1,,,,,,,,,,,,,,,,,,,,,,,,,,,,,,,,,,,,,,,,,,,,,,,,,,,,,,,,,,,,,,,,,,,,,,,,,,,,,,,,2026-01-20_12h22.45.472,,,,,,,,215.16766229085624,215.184531416744,215.66158524993807,,,,,,,,,,,,,,,,,,,,543211,1,Right,1,2026-01-20_12h22.45.472,EmoNback_Behavioral,,2025.1.1,90.63091634475249,2026-01-20 12h23.01.158604 -0600,
2,2,0,3,1,VM Stimuli/PL_010_92038.bmp,nonlure,nontarget,Place,2-Back,None,0,,7,0,7,0,0,2,2,2,215.71266887523234,,,,,,,,,,,,,,,,,,,,,,,,,,,,,,,,,,,,,,,,,,,,,,,,,,,,,,,,,,,,,,215.66256729140878,,215.6626163329929,215.69507208373398,215.69511708337814,215.7002968331799,215.71266887523234,215.71266887523234,215.71266887523234,215.71266887523234,217.70410637557507,None,0,2,NA,NA,NA,2026-01-20_12h22.45.472,12:26:38,1,1,7,3,VM Stimuli/PL_010_92038.bmp,Place,,,,,,,,,,,,,,,,,,,,,,,543211,1,Right,1,2026-01-20_12h22.45.472,EmoNback_Behavioral,,2025.1.1,90.63091634475249,2026-01-20 12h23.01.158604 -0600,
2,2,0,3,1,VM Stimuli/PL_010_92038.bmp,nonlure,nontarget,Place,2-Back,None,0,,7,0,7,0,0,2,2,2,,,,,,,,,,,,,,,,,,,,,,,,,,,,,,,,,,,,,,,,,,,,,,,,,,,,,,,,,,,,,,,,,,,,,,,,,,,,,,,,2026-01-20_12h22.45.472,,,,,,,,217.704802416265,217.7175114583224,218.204810208641,,,,,,,,,,,,,,,,,,,,543211,1,Right,1,2026-01-20_12h22.45.472,EmoNback_Behavioral,,2025.1.1,90.63091634475249,2026-01-20 12h23.01.158604 -0600,
3,3,0,4,1,VM Stimuli/PL_009_92037.bmp,nonlure,nontarget,Place,2-Back,None,0,,7,0,7,0,0,3,3,3,218.25270066596568,,,,,,,,,,,,,,,,,,,,,,,,,,,,,,,,,,,,,,,,,,,,,,,,,,,,,,,,,,,,,,218.20576362498105,,218.2058135829866,218.2344000833109,218.2344490000978,218.23977941647172,218.25270066596568,218.25270066596568,218.25270066596568,218.25270066596568,220.24435850046575,None,0,2,NA,NA,NA,2026-01-20_12h22.45.472,12:26:41,1,1,7,4,VM Stimuli/PL_009_92037.bmp,Place,,,,,,,,,,,,,,,,,,,,,,,543211,1,Right,1,2026-01-20_12h22.45.472,EmoNback_Behavioral,,2025.1.1,90.63091634475249,2026-01-20 12h23.01.158604 -0600,
3,3,0,4,1,VM Stimuli/PL_009_92037.bmp,nonlure,nontarget,Place,2-Back,None,0,,7,0,7,0,0,3,3,3,,,,,,,,,,,,,,,,,,,,,,,,,,,,,,,,,,,,,,,,,,,,,,,,,,,,,,,,,,,,,,,,,,,,,,,,,,,,,,,,2026-01-20_12h22.45.472,,,,,,,,220.24518645834178,220.2548586660996,220.75166408345103,,,,,,,,,,,,,,,,,,,,543211,1,Right,1,2026-01-20_12h22.45.472,EmoNback_Behavioral,,2025.1.1,90.63091634475249,2026-01-20 12h23.01.158604 -0600,
4,4,0,5,1,VM Stimuli/PL_010_92038.bmp,target,Target,Place,2-Back,None,0,,7,0,7,0,0,4,4,4,220.81216304097325,,,,,,,,,,,,,,,,,,,,,,,,,,,,,,,,,,,,,,,,,,,,,,,,,,,,,,,,,,,,,,220.75298245809972,,220.7530466252938,220.7987186666578,220.7987500410527,220.8013624586165,220.81216304097325,220.81216304097325,220.81216304097325,220.81216304097325,222.8003826662898,None,0,1,NA,NA,NA,2026-01-20_12h22.45.472,12:26:43,1,1,7,5,VM Stimuli/PL_010_92038.bmp,Place,,,,,,,,,,,,,,,,,,,,,,,543211,1,Right,1,2026-01-20_12h22.45.472,EmoNback_Behavioral,,2025.1.1,90.63091634475249,2026-01-20 12h23.01.158604 -0600,
4,4,0,5,1,VM Stimuli/PL_010_92038.bmp,target,Target,Place,2-Back,None,0,,7,0,7,0,0,4,4,4,,,,,,,,,,,,,,,,,,,,,,,,,,,,,,,,,,,,,,,,,,,,,,,,,,,,,,,,,,,,,,,,,,,,,,,,,,,,,,,,2026-01-20_12h22.45.472,,,,,,,,222.80129679106176,222.81163895875216,223.29932229127735,,,,,,,,,,,,,,,,,,,,543211,1,Right,1,2026-01-20_12h22.45.472,EmoNback_Behavioral,,2025.1.1,90.63091634475249,2026-01-20 12h23.01.158604 -0600,
5,5,0,6,1,VM Stimuli/PL_009_92037.bmp,target,Target,Place,2-Back,None,0,,7,0,7,0,0,5,5,5,223.35544687509537,,,,,,,,,,,,,,,,,,,,,,,,,,,,,,,,,,,,,,,,,,,,,,,,,,,,,,,,,,,,,,223.30047512520105,,223.30053620785475,223.33956608362496,223.33961008302867,223.34329004120082,223.35544687509537,223.35544687509537,223.35544687509537,223.35544687509537,225.3459772085771,None,0,1,NA,NA,NA,2026-01-20_12h22.45.472,12:26:46,1,1,7,6,VM Stimuli/PL_009_92037.bmp,Place,,,,,,,,,,,,,,,,,,,,,,,543211,1,Right,1,2026-01-20_12h22.45.472,EmoNback_Behavioral,,2025.1.1,90.63091634475249,2026-01-20 12h23.01.158604 -0600,
5,5,0,6,1,VM Stimuli/PL_009_92037.bmp,target,Target,Place,2-Back,None,0,,7,0,7,0,0,5,5,5,,,,,,,,,,,,,,,,,,,,,,,,,,,,,,,,,,,,,,,,,,,,,,,,,,,,,,,,,,,,,,,,,,,,,,,,,,,,,,,,2026-01-20_12h22.45.472,,,,,,,,225.34666541591287,225.35671204142272,225.85084145795554,,,,,,,,,,,,,,,,,,,,543211,1,Right,1,2026-01-20_12h22.45.472,EmoNback_Behavioral,,2025.1.1,90.63091634475249,2026-01-20 12h23.01.158604 -0600,
6,6,0,7,1,VM Stimuli/PL_008_92033.bmp,nonlure,nontarget,Place,2-Back,None,0,,7,0,7,0,0,6,6,6,225.89812891650945,,,,,,,,,,,,,,,,,,,,,,,,,,,,,,,,,,,,,,,,,,,,,,,,,,,,,,,,,,,,,,225.8517067078501,,225.85175495874137,225.8797130836174,225.87976283300668,225.88517612498254,225.89812891650945,225.89812891650945,225.89812891650945,225.89812891650945,227.88306550029665,None,0,2,NA,NA,NA,2026-01-20_12h22.45.472,12:26:49,1,1,7,7,VM Stimuli/PL_008_92033.bmp,Place,,,,,,,,,,,,,,,,,,,,,,,543211,1,Right,1,2026-01-20_12h22.45.472,EmoNback_Behavioral,,2025.1.1,90.63091634475249,2026-01-20 12h23.01.158604 -0600,
6,6,0,7,1,VM Stimuli/PL_008_92033.bmp,nonlure,nontarget,Place,2-Back,None,0,,7,0,7,0,0,6,6,6,,,,,,,,,,,,,,,,,,,,,,,,,,,,,,,,,,,,,,,,,,,,,,,,,,,,,,,,,,,,,,,,,,,,,,,,,,,,,,,,2026-01-20_12h22.45.472,,,,,,,,227.8837526254356,227.89380945824087,228.38421687483788,,,,,,,,,,,,,,,,,,,,543211,1,Right,1,2026-01-20_12h22.45.472,EmoNback_Behavioral,,2025.1.1,90.63091634475249,2026-01-20 12h23.01.158604 -0600,
7,7,0,8,1,VM Stimuli/PL_012_92047.bmp,nonlure,nontarget,Place,2-Back,None,0,,7,0,7,0,0,7,7,7,228.43212379142642,,,,,,,,,,,,,,,,,,,,,,,,,,,,,,,,,,,,,,,,,,,,,,,,,,,,,,,,,,,,,,228.38533462490886,,228.3853965830058,228.41455504111946,228.4146049162373,228.419256166555,228.43212379142642,228.43212379142642,228.43212379142642,228.43212379142642,230.41599362529814,None,0,2,NA,NA,NA,2026-01-20_12h22.45.472,12:26:51,1,1,7,8,VM Stimuli/PL_012_92047.bmp,Place,,,,,,,,,,,,,,,,,,,,,,,543211,1,Right,1,2026-01-20_12h22.45.472,EmoNback_Behavioral,,2025.1.1,90.63091634475249,2026-01-20 12h23.01.158604 -0600,
7,7,0,8,1,VM Stimuli/PL_012_92047.bmp,nonlure,nontarget,Place,2-Back,None,0,,7,0,7,0,0,7,7,7,,,,,,,,,,,,,,,,,,,,,,,,,,,,,,,,,,,,,,,,,,,,,,,,,,,,,,,,,,,,,,,,,,,,,,,,,,,,,,,,2026-01-20_12h22.45.472,,,,,,,,230.41665712557733,230.42636383324862,230.91765850037336,,,,,,,,,,,,,,,,,,,,543211,1,Right,1,2026-01-20_12h22.45.472,EmoNback_Behavioral,,2025.1.1,90.63091634475249,2026-01-20 12h23.01.158604 -0600,
8,8,0,9,1,VM Stimuli/PL_012_92047.bmp,lure,nontarget,Place,2-Back,None,0,,7,0,7,0,0,8,8,8,230.9642984578386,,,,,,,,,,,,,,,,,,,,,,,,,,,,,,,,,,,,,,,,,,,,,,,,,,,,,,,,,,,,,,230.9188082916662,,230.91887083370239,230.94747058302164,230.9475205410272,230.95058495830745,230.9642984578386,230.9642984578386,230.9642984578386,230.9642984578386,232.9500457914546,None,0,2,NA,NA,NA,2026-01-20_12h22.45.472,12:26:54,1,1,7,9,VM Stimuli/PL_012_92047.bmp,Place,,,,,,,,,,,,,,,,,,,,,,,543211,1,Right,1,2026-01-20_12h22.45.472,EmoNback_Behavioral,,2025.1.1,90.63091634475249,2026-01-20 12h23.01.158604 -0600,
8,8,0,9,1,VM Stimuli/PL_012_92047.bmp,lure,nontarget,Place,2-Back,None,0,,7,0,7,0,0,8,8,8,,,,,,,,,,,,,,,,,,,,,,,,,,,,,,,,,,,,,,,,,,,,,,,,,,,,,,,,,,,,,,,,,,,,,,,,,,,,,,,,2026-01-20_12h22.45.472,,,,,,,,232.95067275036126,232.9677012078464,233.45360108371824,,,,,,,,,,,,,,,,,,,,543211,1,Right,1,2026-01-20_12h22.45.472,EmoNback_Behavioral,,2025.1.1,90.63091634475249,2026-01-20 12h23.01.158604 -0600,
9,9,0,10,1,VM Stimuli/PL_011_92044.bmp,nonlure,nontarget,Place,2-Back,None,0,,7,0,7,0,0,9,9,9,233.49948049988598,,,,,,,,,,,,,,,,,,,,,,,,,,,,,,,,,,,,,,,,,,,,,,,,,,,,,,,,,,,,,,233.45456858351827,,233.4546164162457,233.4822550835088,233.48229862563312,233.48663658369333,233.49948049988598,233.49948049988598,233.49948049988598,233.49948049988598,235.49048350006342,None,0,2,NA,NA,NA,2026-01-20_12h22.45.472,12:26:56,1,1,7,10,VM Stimuli/PL_011_92044.bmp,Place,,,,,,,,,,,,,,,,,,,,,,,543211,1,Right,1,2026-01-20_12h22.45.472,EmoNback_Behavioral,,2025.1.1,90.63091634475249,2026-01-20 12h23.01.158604 -0600,
9,9,0,10,1,VM Stimuli/PL_011_92044.bmp,nonlure,nontarget,Place,2-Back,None,0,,7,0,7,0,0,9,9,9,,,,,,,,,,,,,,,,,,,,,,,,,,,,,,,,,,,,,,,,,,,,,,,,,,,,,,,,,,,,,,,,,,,,,,,,,,,,,,,,2026-01-20_12h22.45.472,,,,,,,,235.49115054123104,235.5013497080654,235.98767587542534,,,,,,,,,,,,,,,,,,,,543211,1,Right,1,2026-01-20_12h22.45.472,EmoNback_Behavioral,,2025.1.1,90.63091634475249,2026-01-20 12h23.01.158604 -0600,
,,,,,,,,,,,,,,,,,,,,,,,,,,,,,,,,,,,,,,,,,,,,,,,,,,,,,,,,,,,,,,,,,,,,,,,,,,,,,,,,,,,,,,,,,,,,,,,,,,,,2026-01-20_12h22.45.472,,,,,,,,,,,,,,,,235.99234949983656,235.99243004154414,,,,235.99308354128152,236.00607575010508,250.99414933286607,,,,,,,543211,1,Right,1,2026-01-20_12h22.45.472,EmoNback_Behavioral,,2025.1.1,90.63091634475249,2026-01-20 12h23.01.158604 -0600,
,,,,,,,,,,,,,,,,,,,,,,,,,,,,,,,,,,,,,,,,,,,,,,,,,,,,,,,,,,,,,,,,,,,,,,,,,,,,,,,,,,,,,,,,,,,,,,,,,,,,2026-01-20_12h22.45.472,,,,,,,,,,,,,,,,,,,,,,,,250.9948656251654,251.0074610831216,256.0006949165836,,,,543211,1,Right,1,2026-01-20_12h22.45.472,EmoNback_Behavioral,,2025.1.1,90.63091634475249,2026-01-20 12h23.01.158604 -0600,
,,,,,,,,,,,,,,,,,,,,,,,,,,,,,,,,,,,,,,,,,,,,,,,,,,,,,,,,,,,,,,,,,,,,,,,,,,,,,,,,,,,,,,,,,,,,,,,,,,,,,,,,,,,,,,,,,,,,,,,,,,,,,,,256.0040464159101,256.01802504155785,256.01802504155785,,,,,,,,,,,
