thisN,thisTrialN,thisRepN,ID,Weight,Stimulus,TargetType,CorrectResponse,StimType,BlockType,response.keys,response.corr,TargetStimulus,BlockLoop_Run1.thisRepN,BlockLoop_Run1.thisTrialN,BlockLoop_Run1.thisN,BlockLoop_Run1.thisIndex,TrialLoop_Run1.thisRepN,TrialLoop_Run1.thisTrialN,TrialLoop_Run1.thisN,TrialLoop_Run1.thisIndex,BlockLoop_Run2.thisRepN,BlockLoop_Run2.thisTrialN,BlockLoop_Run2.thisN,BlockLoop_Run2.thisIndex,TrialLoop_Run2.thisRepN,TrialLoop_Run2.thisTrialN,TrialLoop_Run2.thisN,TrialLoop_Run2.thisIndex,thisRow.t,notes,TitlePage.started,Continue.started,NbackTitle.started,TitlePage.stopped,Continue.keys,Continue.rt,Continue.duration,Instructions.started,Continue_2.started,Instruction.started,Instructions.stopped,Continue_2.keys,Continue_2.rt,Continue_2.duration,Instructions_2.started,Continue_3.started,Instruction_2.started,Target.started,TargetImage.started,Instructions_2.stopped,Continue_3.keys,Continue_3.rt,Continue_3.duration,Instructions_3.started,Continue_4.started,Instruction_3.started,Green_Border.started,Image_2Back.started,Image_1Back.started,Image_ToMatch.started,LEFTSIDESCREEN_CAPTION.started,RIGHTSIDESCREEN_CAPTION.started,Instructions_3.stopped,Continue_4.keys,Continue_4.rt,Continue_4.duration,Instructions_4.started,Continue_5.started,Instruction_4.started,Instructions_4.stopped,Continue_5.keys,Continue_5.rt,Continue_5.duration,Instructions_5.started,Continue_6.started,Instruction_5.started,Instructions_5.stopped,Continue_6.keys,Continue_6.rt,Continue_6.duration,Waiting4Scanner.started,Continue_7.started,Scanner_Instruction.started,Waiting4Scanner.stopped,Continue_7.keys,Continue_7.rt,Continue_7.duration,CueFix_Run1.started,Cue_Fix.started,CueFix_Run1.stopped,Cue2Back.started,Cue_2Back.started,Cue2Back.stopped,Cue0Back.started,Cue0Back.stopped,Stim.started,StimulusImage.started,LeftScreenResponse.started,RightScreenResponse.started,response.started,StimulusImage.stopped,LeftScreenResponse.stopped,RightScreenResponse.stopped,response.stopped,Stim.stopped,TrialLoop_Run1.response.keys,TrialLoop_Run1.response.corr,correctKey,pressedKey,accuracy,RT,date,time,version,run,block,id,stimulus,stimType,Fix.started,End_Fix.started,End_Fix.stopped,Fix.stopped,EndBlock_Run1.started,EndBlock_Run1.stopped,Cue_Fix.stopped,Cue_Target.started,Cue_TargetImage.started,Cue_2Back.stopped,Fix15Sec.started,Fix_15_Sec.started,Fix_15_Sec.stopped,Fix15Sec.stopped,Fix5Sec.started,Fix_5_Sec.started,Fix_5_Sec.stopped,Fix5Sec.stopped,Instructions_6.started,Continue_8.started,Instruction_6.started,Instructions_6.stopped,Continue_8.keys,Continue_8.rt,Continue_8.duration,Instructions_7.started,Continue_9.started,Instruction_7.started,Instructions_7.stopped,Continue_9.keys,Continue_9.rt,Continue_9.duration,CueFix_Run2.started,Cue_Fix_2.started,Cue_Fix_2.stopped,CueFix_Run2.stopped,TrialLoop_Run2.response.keys,TrialLoop_Run2.response.corr,EndBlock_Run2.started,EndBlock_Run2.stopped,Please enter the Subject ID:,Please enter the Session Number:,Enter subject's handedness:,Please select version:,date,expName,expVersion,psychopyVersion,frameRate,expStart,
,,,,,,,,,,,,,,,,,,,,,,,,,,,,,,,0.00833362527191639,0.015201041474938393,0.015201041474938393,10.256212416104972,space,9.920534957200289,None,,,,,,,,,,,,,,,,,,,,,,,,,,,,,,,,,,,,,,,,,,,,,,,,,,,,,,,,,,,,,,,,,,,,,,,,,,,2026-01-23_12h24.07.992,,,,,,,,,,,,,,,,,,,,,,,,,,,,,,,,,,,,,,,,,,,,,,,,123456,1,Right,1,2026-01-23_12h24.07.992,EmoNback_Behavioral,,2025.1.1,None,2026-01-23 12h24.20.588612 -0600,
,,,,,,,,,,,,,,,,,,,,,,,,,,,,,,,,,,,,,,10.257836541160941,10.27281279116869,10.27281279116869,74.09975400008261,space,63.820243331603706,None,,,,,,,,,,,,,,,,,,,,,,,,,,,,,,,,,,,,,,,,,,,,,,,,,,,,,,,,,,,,,,,,,,,,2026-01-23_12h24.07.992,,,,,,,,,,,,,,,,,,,,,,,,,,,,,,,,,,,,,,,,,,,,,,,,123456,1,Right,1,2026-01-23_12h24.07.992,EmoNback_Behavioral,,2025.1.1,None,2026-01-23 12h24.20.588612 -0600,
,,,,,,,,,,,,,,,,,,,,,,,,,,,,,,,,,,,,,,,,,,,,,74.10231466591358,74.12443604134023,74.12443604134023,74.12443604134023,74.12443604134023,94.68282112572342,space,20.55453312397003,None,,,,,,,,,,,,,,,,,,,,,,,,,,,,,,,,,,,,,,,,,,,,,,,,,,,,,,,,,,,2026-01-23_12h24.07.992,,,,,,,,,,,,,,,,,,,,,,,,,,,,,,,,,,,,,,,,,,,,,,,,123456,1,Right,1,2026-01-23_12h24.07.992,EmoNback_Behavioral,,2025.1.1,None,2026-01-23 12h24.20.588612 -0600,
,,,,,,,,,,,,,,,,,,,,,,,,,,,,,,,,,,,,,,,,,,,,,,,,,,,,,,94.6859769159928,94.71019929181784,94.71019929181784,94.71019929181784,94.71019929181784,94.71019929181784,94.71019929181784,94.71019929181784,94.71019929181784,108.14785175025463,space,13.41304595861584,None,,,,,,,,,,,,,,,,,,,,,,,,,,,,,,,,,,,,,,,,,,,,,,2026-01-23_12h24.07.992,,,,,,,,,,,,,,,,,,,,,,,,,,,,,,,,,,,,,,,,,,,,,,,,123456,1,Right,1,2026-01-23_12h24.07.992,EmoNback_Behavioral,,2025.1.1,None,2026-01-23 12h24.20.588612 -0600,
,,,,,,,,,,,,,,,,,,,,,,,,,,,,,,,,,,,,,,,,,,,,,,,,,,,,,,,,,,,,,,,,,,,108.14913491625339,108.16899475082755,108.16899475082755,145.0990502499044,space,36.920777208171785,None,,,,,,,,,,,,,,,,,,,,,,,,,,,,,,,,,,,,,,,2026-01-23_12h24.07.992,,,,,,,,,,,,,,,,,,,,,,,,,,,,,,,,,,,,,,,,,,,,,,,,123456,1,Right,1,2026-01-23_12h24.07.992,EmoNback_Behavioral,,2025.1.1,None,2026-01-23 12h24.20.588612 -0600,
,,,,,,,,,,,,,,,,,,,,,,,,,,,,,,,,,,,,,,,,,,,,,,,,,,,,,,,,,,,,,,,,,,,,,,,,,,145.10105391591787,145.10946129169315,145.10946129169315,248.7455249587074,space,103.63303024880588,None,,,,,,,,,,,,,,,,,,,,,,,,,,,,,,,,2026-01-23_12h24.07.992,,,,,,,,,,,,,,,,,,,,,,,,,,,,,,,,,,,,,,,,,,,,,,,,123456,1,Right,1,2026-01-23_12h24.07.992,EmoNback_Behavioral,,2025.1.1,None,2026-01-23 12h24.20.588612 -0600,
,,,,,,,,,,,,,,,,,,,,,,,,,,,,,,,,,,,,,,,,,,,,,,,,,,,,,,,,,,,,,,,,,,,,,,,,,,,,,,,,,248.74700695835054,248.75345366634429,248.75345366634429,265.7700978750363,t,17.008644999936223,None,,,,,,,,,,,,,,,,,,,,,,,,,2026-01-23_12h24.07.992,,,,,,,,,,,,,,,,,,,,,,,,,,,,,,,,,,,,,,,,,,,,,,,,123456,1,Right,1,2026-01-23_12h24.07.992,EmoNback_Behavioral,,2025.1.1,None,2026-01-23 12h24.20.588612 -0600,
0,0,0,1,1,VM Stimuli/23M_HO.bmp,nonlure,nontarget,PosFace,2-Back,None,0,,0,0,0,0,0,0,0,0,,,,,,,,,266.34869270864874,,,,,,,,,,,,,,,,,,,,,,,,,,,,,,,,,,,,,,,,,,,,,,,,,,,,,,,,,,,265.78188708331436,265.78927450068295,266.27675225026906,266.3432128755376,266.34869270864874,268.75979583337903,268.79602850042284,268.79607204161584,268.7997427918017,268.8069678330794,268.8069678330794,268.8069678330794,268.8069678330794,270.8002121662721,270.8002121662721,270.8002121662721,270.8002121662721,270.7929859999567,None,0,2,NA,NA,NA,2026-01-23_12h24.07.992,12:28:51,1,1,0,1,VM Stimuli/23M_HO.bmp,PosFace,,,,,,,,,,,,,,,,,,,,,,,,,,,,,,,,,,,,,,,,,123456,1,Right,1,2026-01-23_12h24.07.992,EmoNback_Behavioral,,2025.1.1,None,2026-01-23 12h24.20.588612 -0600,
0,0,0,1,1,VM Stimuli/23M_HO.bmp,nonlure,nontarget,PosFace,2-Back,None,0,,0,0,0,0,0,0,0,0,,,,,,,,,,,,,,,,,,,,,,,,,,,,,,,,,,,,,,,,,,,,,,,,,,,,,,,,,,,,,,,,,,,,,,,,,,,,,,,,,,,,,,,,,,,,2026-01-23_12h24.07.992,,,,,,,,270.7944087916985,270.8002121662721,271.3154393751174,271.2834262503311,,,,,,,,,,,,,,,,,,,,,,,,,,,,,,,,,,,,,123456,1,Right,1,2026-01-23_12h24.07.992,EmoNback_Behavioral,,2025.1.1,None,2026-01-23 12h24.20.588612 -0600,
1,1,0,2,1,VM Stimuli/12F_HO.bmp,nonlure,nontarget,PosFace,2-Back,None,0,,0,0,0,0,0,1,1,1,,,,,,,,,271.3154393751174,,,,,,,,,,,,,,,,,,,,,,,,,,,,,,,,,,,,,,,,,,,,,,,,,,,,,,,,,,,,,,271.283937250264,,271.28395920805633,271.3035843754187,271.303618083708,271.3069100417197,271.3154393751174,271.3154393751174,271.3154393751174,271.3154393751174,273.3095912504941,273.3095912504941,273.3095912504941,273.3095912504941,273.2988290004432,None,0,2,NA,NA,NA,2026-01-23_12h24.07.992,12:28:53,1,1,0,2,VM Stimuli/12F_HO.bmp,PosFace,,,,,,,,,,,,,,,,,,,,,,,,,,,,,,,,,,,,,,,,,123456,1,Right,1,2026-01-23_12h24.07.992,EmoNback_Behavioral,,2025.1.1,None,2026-01-23 12h24.20.588612 -0600,
1,1,0,2,1,VM Stimuli/12F_HO.bmp,nonlure,nontarget,PosFace,2-Back,None,0,,0,0,0,0,0,1,1,1,,,,,,,,,,,,,,,,,,,,,,,,,,,,,,,,,,,,,,,,,,,,,,,,,,,,,,,,,,,,,,,,,,,,,,,,,,,,,,,,,,,,,,,,,,,,2026-01-23_12h24.07.992,,,,,,,,273.299304375425,273.3095912504941,273.8209877507761,273.7930152500048,,,,,,,,,,,,,,,,,,,,,,,,,,,,,,,,,,,,,123456,1,Right,1,2026-01-23_12h24.07.992,EmoNback_Behavioral,,2025.1.1,None,2026-01-23 12h24.20.588612 -0600,
2,2,0,3,1,VM Stimuli/AF02_HO.bmp,nonlure,nontarget,PosFace,2-Back,None,0,,0,0,0,0,0,2,2,2,,,,,,,,,273.8209877507761,,,,,,,,,,,,,,,,,,,,,,,,,,,,,,,,,,,,,,,,,,,,,,,,,,,,,,,,,,,,,,273.7935855835676,,273.7936112508178,273.8100649584085,273.8100985409692,273.8141773333773,273.8209877507761,273.8209877507761,273.8209877507761,273.8209877507761,275.8181231254712,275.8181231254712,275.8181231254712,275.8181231254712,275.8100797086954,None,0,2,NA,NA,NA,2026-01-23_12h24.07.992,12:28:56,1,1,0,3,VM Stimuli/AF02_HO.bmp,PosFace,,,,,,,,,,,,,,,,,,,,,,,,,,,,,,,,,,,,,,,,,123456,1,Right,1,2026-01-23_12h24.07.992,EmoNback_Behavioral,,2025.1.1,None,2026-01-23 12h24.20.588612 -0600,
2,2,0,3,1,VM Stimuli/AF02_HO.bmp,nonlure,nontarget,PosFace,2-Back,None,0,,0,0,0,0,0,2,2,2,,,,,,,,,,,,,,,,,,,,,,,,,,,,,,,,,,,,,,,,,,,,,,,,,,,,,,,,,,,,,,,,,,,,,,,,,,,,,,,,,,,,,,,,,,,,2026-01-23_12h24.07.992,,,,,,,,275.8106266250834,275.8181231254712,276.3417025003582,276.303026875481,,,,,,,,,,,,,,,,,,,,,,,,,,,,,,,,,,,,,123456,1,Right,1,2026-01-23_12h24.07.992,EmoNback_Behavioral,,2025.1.1,None,2026-01-23 12h24.20.588612 -0600,
3,3,0,4,1,VM Stimuli/12F_HO.bmp,target,Target,PosFace,2-Back,None,0,,0,0,0,0,0,3,3,3,,,,,,,,,276.3417025003582,,,,,,,,,,,,,,,,,,,,,,,,,,,,,,,,,,,,,,,,,,,,,,,,,,,,,,,,,,,,,,276.3035517912358,,276.30357166659087,276.3341199159622,276.33415295835584,276.33601550012827,276.3417025003582,276.3417025003582,276.3417025003582,276.3417025003582,278.3340257909149,278.3340257909149,278.3340257909149,278.3340257909149,278.32644150033593,None,0,1,NA,NA,NA,2026-01-23_12h24.07.992,12:28:58,1,1,0,4,VM Stimuli/12F_HO.bmp,PosFace,,,,,,,,,,,,,,,,,,,,,,,,,,,,,,,,,,,,,,,,,123456,1,Right,1,2026-01-23_12h24.07.992,EmoNback_Behavioral,,2025.1.1,None,2026-01-23 12h24.20.588612 -0600,
3,3,0,4,1,VM Stimuli/12F_HO.bmp,target,Target,PosFace,2-Back,None,0,,0,0,0,0,0,3,3,3,,,,,,,,,,,,,,,,,,,,,,,,,,,,,,,,,,,,,,,,,,,,,,,,,,,,,,,,,,,,,,,,,,,,,,,,,,,,,,,,,,,,,,,,,,,,2026-01-23_12h24.07.992,,,,,,,,278.32694391626865,278.3340257909149,278.84289475064725,278.81717254128307,,,,,,,,,,,,,,,,,,,,,,,,,,,,,,,,,,,,,123456,1,Right,1,2026-01-23_12h24.07.992,EmoNback_Behavioral,,2025.1.1,None,2026-01-23 12h24.20.588612 -0600,
4,4,0,5,1,VM Stimuli/WM011_HO.bmp,nonlure,nontarget,PosFace,2-Back,None,0,,0,0,0,0,0,4,4,4,,,,,,,,,278.84289475064725,,,,,,,,,,,,,,,,,,,,,,,,,,,,,,,,,,,,,,,,,,,,,,,,,,,,,,,,,,,,,,278.8176491660997,,278.817669166252,278.8342492086813,278.83428250066936,278.8371940003708,278.84289475064725,278.84289475064725,278.84289475064725,278.84289475064725,280.8309892080724,280.8309892080724,280.8309892080724,280.8309892080724,280.82624695822597,None,0,2,NA,NA,NA,2026-01-23_12h24.07.992,12:29:01,1,1,0,5,VM Stimuli/WM011_HO.bmp,PosFace,,,,,,,,,,,,,,,,,,,,,,,,,,,,,,,,,,,,,,,,,123456,1,Right,1,2026-01-23_12h24.07.992,EmoNback_Behavioral,,2025.1.1,None,2026-01-23 12h24.20.588612 -0600,
4,4,0,5,1,VM Stimuli/WM011_HO.bmp,nonlure,nontarget,PosFace,2-Back,None,0,,0,0,0,0,0,4,4,4,,,,,,,,,,,,,,,,,,,,,,,,,,,,,,,,,,,,,,,,,,,,,,,,,,,,,,,,,,,,,,,,,,,,,,,,,,,,,,,,,,,,,,,,,,,,2026-01-23_12h24.07.992,,,,,,,,280.8267879579216,280.8309892080724,281.3430491257459,281.3192945001647,,,,,,,,,,,,,,,,,,,,,,,,,,,,,,,,,,,,,123456,1,Right,1,2026-01-23_12h24.07.992,EmoNback_Behavioral,,2025.1.1,None,2026-01-23 12h24.20.588612 -0600,
5,5,0,6,1,VM Stimuli/HM04_HO.bmp,nonlure,nontarget,PosFace,2-Back,None,0,,0,0,0,0,0,5,5,5,,,,,,,,,281.3430491257459,,,,,,,,,,,,,,,,,,,,,,,,,,,,,,,,,,,,,,,,,,,,,,,,,,,,,,,,,,,,,,281.3198669999838,,281.3198899580166,281.33472300041467,281.3347595417872,281.3374673752114,281.3430491257459,281.3430491257459,281.3430491257459,281.3430491257459,283.3336968338117,283.3336968338117,283.3336968338117,283.3336968338117,283.3266145410016,None,0,2,NA,NA,NA,2026-01-23_12h24.07.992,12:29:03,1,1,0,6,VM Stimuli/HM04_HO.bmp,PosFace,,,,,,,,,,,,,,,,,,,,,,,,,,,,,,,,,,,,,,,,,123456,1,Right,1,2026-01-23_12h24.07.992,EmoNback_Behavioral,,2025.1.1,None,2026-01-23 12h24.20.588612 -0600,
5,5,0,6,1,VM Stimuli/HM04_HO.bmp,nonlure,nontarget,PosFace,2-Back,None,0,,0,0,0,0,0,5,5,5,,,,,,,,,,,,,,,,,,,,,,,,,,,,,,,,,,,,,,,,,,,,,,,,,,,,,,,,,,,,,,,,,,,,,,,,,,,,,,,,,,,,,,,,,,,,2026-01-23_12h24.07.992,,,,,,,,283.32715362496674,283.3336968338117,283.8552669165656,283.8265738338232,,,,,,,,,,,,,,,,,,,,,,,,,,,,,,,,,,,,,123456,1,Right,1,2026-01-23_12h24.07.992,EmoNback_Behavioral,,2025.1.1,None,2026-01-23 12h24.20.588612 -0600,
6,6,0,7,1,VM Stimuli/AF02_HO.bmp,lure,nontarget,PosFace,2-Back,None,0,,0,0,0,0,0,6,6,6,,,,,,,,,283.8552669165656,,,,,,,,,,,,,,,,,,,,,,,,,,,,,,,,,,,,,,,,,,,,,,,,,,,,,,,,,,,,,,283.8272076668218,,283.82723091635853,283.8450728757307,283.8451117500663,283.8484981665388,283.8552669165656,283.8552669165656,283.8552669165656,283.8552669165656,285.8503758748993,285.8503758748993,285.8503758748993,285.8503758748993,285.84276991616935,None,0,2,NA,NA,NA,2026-01-23_12h24.07.992,12:29:06,1,1,0,7,VM Stimuli/AF02_HO.bmp,PosFace,,,,,,,,,,,,,,,,,,,,,,,,,,,,,,,,,,,,,,,,,123456,1,Right,1,2026-01-23_12h24.07.992,EmoNback_Behavioral,,2025.1.1,None,2026-01-23 12h24.20.588612 -0600,
6,6,0,7,1,VM Stimuli/AF02_HO.bmp,lure,nontarget,PosFace,2-Back,None,0,,0,0,0,0,0,6,6,6,,,,,,,,,,,,,,,,,,,,,,,,,,,,,,,,,,,,,,,,,,,,,,,,,,,,,,,,,,,,,,,,,,,,,,,,,,,,,,,,,,,,,,,,,,,,2026-01-23_12h24.07.992,,,,,,,,285.84336283337325,285.8503758748993,286.37606208305806,286.34294508304447,,,,,,,,,,,,,,,,,,,,,,,,,,,,,,,,,,,,,123456,1,Right,1,2026-01-23_12h24.07.992,EmoNback_Behavioral,,2025.1.1,None,2026-01-23 12h24.20.588612 -0600,
7,7,0,8,1,VM Stimuli/BF037_HO.bmp,nonlure,nontarget,PosFace,2-Back,None,0,,0,0,0,0,0,7,7,7,,,,,,,,,286.37606208305806,,,,,,,,,,,,,,,,,,,,,,,,,,,,,,,,,,,,,,,,,,,,,,,,,,,,,,,,,,,,,,286.3435514587909,,286.34358058311045,286.3669104585424,286.3669431665912,286.3704502079636,286.37606208305806,286.37606208305806,286.37606208305806,286.37606208305806,288.36861979123205,288.36861979123205,288.36861979123205,288.36861979123205,288.3596500409767,None,0,2,NA,NA,NA,2026-01-23_12h24.07.992,12:29:08,1,1,0,8,VM Stimuli/BF037_HO.bmp,PosFace,,,,,,,,,,,,,,,,,,,,,,,,,,,,,,,,,,,,,,,,,123456,1,Right,1,2026-01-23_12h24.07.992,EmoNback_Behavioral,,2025.1.1,None,2026-01-23 12h24.20.588612 -0600,
7,7,0,8,1,VM Stimuli/BF037_HO.bmp,nonlure,nontarget,PosFace,2-Back,None,0,,0,0,0,0,0,7,7,7,,,,,,,,,,,,,,,,,,,,,,,,,,,,,,,,,,,,,,,,,,,,,,,,,,,,,,,,,,,,,,,,,,,,,,,,,,,,,,,,,,,,,,,,,,,,2026-01-23_12h24.07.992,,,,,,,,288.3602764159441,288.36861979123205,288.88901508320123,288.85993091668934,,,,,,,,,,,,,,,,,,,,,,,,,,,,,,,,,,,,,123456,1,Right,1,2026-01-23_12h24.07.992,EmoNback_Behavioral,,2025.1.1,None,2026-01-23 12h24.20.588612 -0600,
8,8,0,9,1,VM Stimuli/WM011_HO.bmp,lure,nontarget,PosFace,2-Back,None,0,,0,0,0,0,0,8,8,8,,,,,,,,,288.88901508320123,,,,,,,,,,,,,,,,,,,,,,,,,,,,,,,,,,,,,,,,,,,,,,,,,,,,,,,,,,,,,,288.86064304132015,,288.8606728753075,288.8796479161829,288.8796847909689,288.88321720808744,288.88901508320123,288.88901508320123,288.88901508320123,288.88901508320123,290.8835019161925,290.8835019161925,290.8835019161925,290.8835019161925,290.87598220817745,None,0,2,NA,NA,NA,2026-01-23_12h24.07.992,12:29:11,1,1,0,9,VM Stimuli/WM011_HO.bmp,PosFace,,,,,,,,,,,,,,,,,,,,,,,,,,,,,,,,,,,,,,,,,123456,1,Right,1,2026-01-23_12h24.07.992,EmoNback_Behavioral,,2025.1.1,None,2026-01-23 12h24.20.588612 -0600,
8,8,0,9,1,VM Stimuli/WM011_HO.bmp,lure,nontarget,PosFace,2-Back,None,0,,0,0,0,0,0,8,8,8,,,,,,,,,,,,,,,,,,,,,,,,,,,,,,,,,,,,,,,,,,,,,,,,,,,,,,,,,,,,,,,,,,,,,,,,,,,,,,,,,,,,,,,,,,,,2026-01-23_12h24.07.992,,,,,,,,290.876498750411,290.8835019161925,291.39796012546867,291.368630874902,,,,,,,,,,,,,,,,,,,,,,,,,,,,,,,,,,,,,123456,1,Right,1,2026-01-23_12h24.07.992,EmoNback_Behavioral,,2025.1.1,None,2026-01-23 12h24.20.588612 -0600,
9,9,0,10,1,VM Stimuli/BF037_HO.bmp,target,Target,PosFace,2-Back,None,0,,0,0,0,0,0,9,9,9,,,,,,,,,291.39796012546867,,,,,,,,,,,,,,,,,,,,,,,,,,,,,,,,,,,,,,,,,,,,,,,,,,,,,,,,,,,,,,291.36908241640776,,291.3691013334319,291.38926550000906,291.38930383324623,291.3910624999553,291.39796012546867,291.39796012546867,291.39796012546867,291.39796012546867,293.39253195840865,293.39253195840865,293.39253195840865,293.39253195840865,293.381916125305,None,0,1,NA,NA,NA,2026-01-23_12h24.07.992,12:29:14,1,1,0,10,VM Stimuli/BF037_HO.bmp,PosFace,,,,,,,,,,,,,,,,,,,,,,,,,,,,,,,,,,,,,,,,,123456,1,Right,1,2026-01-23_12h24.07.992,EmoNback_Behavioral,,2025.1.1,None,2026-01-23 12h24.20.588612 -0600,
9,9,0,10,1,VM Stimuli/BF037_HO.bmp,target,Target,PosFace,2-Back,None,0,,0,0,0,0,0,9,9,9,,,,,,,,,,,,,,,,,,,,,,,,,,,,,,,,,,,,,,,,,,,,,,,,,,,,,,,,,,,,,,,,,,,,,,,,,,,,,,,,,,,,,,,,,,,,2026-01-23_12h24.07.992,,,,,,,,293.3825209159404,293.39253195840865,293.89927175082266,293.8758389586583,,,,,,,,,,,,,,,,,,,,,,,,,,,,,,,,,,,,,123456,1,Right,1,2026-01-23_12h24.07.992,EmoNback_Behavioral,,2025.1.1,None,2026-01-23 12h24.20.588612 -0600,
0,0,0,1,1,VM Stimuli/LF206_NC.bmp,nonlure,nontarget,NeutFace,0-Back,None,0,VM Stimuli/AF218_NC.bmp,1,0,1,0,0,0,0,0,,,,,,,,,294.4012786252424,,,,,,,,,,,,,,,,,,,,,,,,,,,,,,,,,,,,,,,,,,,,,,,,,,,,,,,,,,,293.89477750007063,293.89927175082266,294.3826333330944,294.3884090008214,,294.38843424990773,294.395235250704,296.87577166594565,296.88047262560576,296.88629733305424,296.88629733305424,296.88629733305424,296.88629733305424,298.88117845822126,298.88117845822126,298.88117845822126,298.88117845822126,298.8757818331942,None,0,2,NA,NA,NA,2026-01-23_12h24.07.992,12:29:19,1,1,1,1,VM Stimuli/LF206_NC.bmp,NeutFace,,,,,293.88131541665643,293.88136891648173,294.4012786252424,294.4012786252424,294.4012786252424,,,,,,,,,,,,,,,,,,,,,,,,,,,,,,,,123456,1,Right,1,2026-01-23_12h24.07.992,EmoNback_Behavioral,,2025.1.1,None,2026-01-23 12h24.20.588612 -0600,
0,0,0,1,1,VM Stimuli/LF206_NC.bmp,nonlure,nontarget,NeutFace,0-Back,None,0,VM Stimuli/AF218_NC.bmp,1,0,1,0,0,0,0,0,,,,,,,,,,,,,,,,,,,,,,,,,,,,,,,,,,,,,,,,,,,,,,,,,,,,,,,,,,,,,,,,,,,,,,,,,,,,,,,,,,,,,,,,,,,,2026-01-23_12h24.07.992,,,,,,,,298.87632350064814,298.88117845822126,299.38045641593635,299.36756495852023,,,,,,,,,,,,,,,,,,,,,,,,,,,,,,,,,,,,,123456,1,Right,1,2026-01-23_12h24.07.992,EmoNback_Behavioral,,2025.1.1,None,2026-01-23 12h24.20.588612 -0600,
1,1,0,2,1,VM Stimuli/AF218_NC.bmp,target,Target,NeutFace,0-Back,None,0,VM Stimuli/AF218_NC.bmp,1,0,1,0,0,1,1,1,,,,,,,,,299.38045641593635,,,,,,,,,,,,,,,,,,,,,,,,,,,,,,,,,,,,,,,,,,,,,,,,,,,,,,,,,,,,,,299.3681061659008,,299.3681259583682,299.3698577499017,299.36989166680723,299.3717407910153,299.38045641593635,299.38045641593635,299.38045641593635,299.38045641593635,301.37556220870465,301.37556220870465,301.37556220870465,301.37556220870465,301.36746975034475,None,0,1,NA,NA,NA,2026-01-23_12h24.07.992,12:29:22,1,1,1,2,VM Stimuli/AF218_NC.bmp,NeutFace,,,,,,,,,,,,,,,,,,,,,,,,,,,,,,,,,,,,,,,,,123456,1,Right,1,2026-01-23_12h24.07.992,EmoNback_Behavioral,,2025.1.1,None,2026-01-23 12h24.20.588612 -0600,
1,1,0,2,1,VM Stimuli/AF218_NC.bmp,target,Target,NeutFace,0-Back,None,0,VM Stimuli/AF218_NC.bmp,1,0,1,0,0,1,1,1,,,,,,,,,,,,,,,,,,,,,,,,,,,,,,,,,,,,,,,,,,,,,,,,,,,,,,,,,,,,,,,,,,,,,,,,,,,,,,,,,,,,,,,,,,,,2026-01-23_12h24.07.992,,,,,,,,301.36808783374727,301.37556220870465,301.8727677082643,301.8591973334551,,,,,,,,,,,,,,,,,,,,,,,,,,,,,,,,,,,,,123456,1,Right,1,2026-01-23_12h24.07.992,EmoNback_Behavioral,,2025.1.1,None,2026-01-23 12h24.20.588612 -0600,
2,2,0,3,1,VM Stimuli/42M_NC.bmp,nonlure,nontarget,NeutFace,0-Back,None,0,VM Stimuli/AF218_NC.bmp,1,0,1,0,0,2,2,2,,,,,,,,,301.8727677082643,,,,,,,,,,,,,,,,,,,,,,,,,,,,,,,,,,,,,,,,,,,,,,,,,,,,,,,,,,,,,,301.8598010838032,,301.85982316639274,301.86203545797616,301.8620844166726,301.8658888330683,301.8727677082643,301.8727677082643,301.8727677082643,301.8727677082643,303.86840575002134,303.86840575002134,303.86840575002134,303.86840575002134,303.8591806665063,None,0,2,NA,NA,NA,2026-01-23_12h24.07.992,12:29:24,1,1,1,3,VM Stimuli/42M_NC.bmp,NeutFace,,,,,,,,,,,,,,,,,,,,,,,,,,,,,,,,,,,,,,,,,123456,1,Right,1,2026-01-23_12h24.07.992,EmoNback_Behavioral,,2025.1.1,None,2026-01-23 12h24.20.588612 -0600,
2,2,0,3,1,VM Stimuli/42M_NC.bmp,nonlure,nontarget,NeutFace,0-Back,None,0,VM Stimuli/AF218_NC.bmp,1,0,1,0,0,2,2,2,,,,,,,,,,,,,,,,,,,,,,,,,,,,,,,,,,,,,,,,,,,,,,,,,,,,,,,,,,,,,,,,,,,,,,,,,,,,,,,,,,,,,,,,,,,,2026-01-23_12h24.07.992,,,,,,,,303.859738166444,303.86840575002134,304.3718403754756,304.358984333463,,,,,,,,,,,,,,,,,,,,,,,,,,,,,,,,,,,,,123456,1,Right,1,2026-01-23_12h24.07.992,EmoNback_Behavioral,,2025.1.1,None,2026-01-23 12h24.20.588612 -0600,
3,3,0,4,1,VM Stimuli/BM09_NC.bmp,nonlure,nontarget,NeutFace,0-Back,None,0,VM Stimuli/AF218_NC.bmp,1,0,1,0,0,3,3,3,,,,,,,,,304.3718403754756,,,,,,,,,,,,,,,,,,,,,,,,,,,,,,,,,,,,,,,,,,,,,,,,,,,,,,,,,,,,,,304.3595797913149,,304.3596135005355,304.3615229167044,304.36155954096466,304.364912500605,304.3718403754756,304.3718403754756,304.3718403754756,304.3718403754756,306.36862275004387,306.36862275004387,306.36862275004387,306.36862275004387,306.35898075066507,None,0,2,NA,NA,NA,2026-01-23_12h24.07.992,12:29:26,1,1,1,4,VM Stimuli/BM09_NC.bmp,NeutFace,,,,,,,,,,,,,,,,,,,,,,,,,,,,,,,,,,,,,,,,,123456,1,Right,1,2026-01-23_12h24.07.992,EmoNback_Behavioral,,2025.1.1,None,2026-01-23 12h24.20.588612 -0600,
3,3,0,4,1,VM Stimuli/BM09_NC.bmp,nonlure,nontarget,NeutFace,0-Back,None,0,VM Stimuli/AF218_NC.bmp,1,0,1,0,0,3,3,3,,,,,,,,,,,,,,,,,,,,,,,,,,,,,,,,,,,,,,,,,,,,,,,,,,,,,,,,,,,,,,,,,,,,,,,,,,,,,,,,,,,,,,,,,,,,2026-01-23_12h24.07.992,,,,,,,,306.3595028333366,306.36862275004387,306.87160670850426,306.859381666407,,,,,,,,,,,,,,,,,,,,,,,,,,,,,,,,,,,,,123456,1,Right,1,2026-01-23_12h24.07.992,EmoNback_Behavioral,,2025.1.1,None,2026-01-23 12h24.20.588612 -0600,
4,4,0,5,1,VM Stimuli/BM09_NC.bmp,lure,nontarget,NeutFace,0-Back,None,0,VM Stimuli/AF218_NC.bmp,1,0,1,0,0,4,4,4,,,,,,,,,306.87160670850426,,,,,,,,,,,,,,,,,,,,,,,,,,,,,,,,,,,,,,,,,,,,,,,,,,,,,,,,,,,,,,306.8600002499297,,306.8600289579481,306.8624278334901,306.86247195862234,306.86453970801085,306.87160670850426,306.87160670850426,306.87160670850426,306.87160670850426,308.8658449165523,308.8658449165523,308.8658449165523,308.8658449165523,308.85886000003666,None,0,2,NA,NA,NA,2026-01-23_12h24.07.992,12:29:29,1,1,1,5,VM Stimuli/BM09_NC.bmp,NeutFace,,,,,,,,,,,,,,,,,,,,,,,,,,,,,,,,,,,,,,,,,123456,1,Right,1,2026-01-23_12h24.07.992,EmoNback_Behavioral,,2025.1.1,None,2026-01-23 12h24.20.588612 -0600,
4,4,0,5,1,VM Stimuli/BM09_NC.bmp,lure,nontarget,NeutFace,0-Back,None,0,VM Stimuli/AF218_NC.bmp,1,0,1,0,0,4,4,4,,,,,,,,,,,,,,,,,,,,,,,,,,,,,,,,,,,,,,,,,,,,,,,,,,,,,,,,,,,,,,,,,,,,,,,,,,,,,,,,,,,,,,,,,,,,2026-01-23_12h24.07.992,,,,,,,,308.85937654133886,308.8658449165523,309.35882541630417,309.3489967910573,,,,,,,,,,,,,,,,,,,,,,,,,,,,,,,,,,,,,123456,1,Right,1,2026-01-23_12h24.07.992,EmoNback_Behavioral,,2025.1.1,None,2026-01-23 12h24.20.588612 -0600,
5,5,0,6,1,VM Stimuli/AF218_NC.bmp,target,Target,NeutFace,0-Back,None,0,VM Stimuli/AF218_NC.bmp,1,0,1,0,0,5,5,5,,,,,,,,,309.35882541630417,,,,,,,,,,,,,,,,,,,,,,,,,,,,,,,,,,,,,,,,,,,,,,,,,,,,,,,,,,,,,,309.34951354097575,,309.3495337087661,309.35118662565947,309.3512192508206,309.3529573334381,309.35882541630417,309.35882541630417,309.35882541630417,309.35882541630417,311.3503504162654,311.3503504162654,311.3503504162654,311.3503504162654,311.3427595831454,None,0,1,NA,NA,NA,2026-01-23_12h24.07.992,12:29:31,1,1,1,6,VM Stimuli/AF218_NC.bmp,NeutFace,,,,,,,,,,,,,,,,,,,,,,,,,,,,,,,,,,,,,,,,,123456,1,Right,1,2026-01-23_12h24.07.992,EmoNback_Behavioral,,2025.1.1,None,2026-01-23 12h24.20.588612 -0600,
5,5,0,6,1,VM Stimuli/AF218_NC.bmp,target,Target,NeutFace,0-Back,None,0,VM Stimuli/AF218_NC.bmp,1,0,1,0,0,5,5,5,,,,,,,,,,,,,,,,,,,,,,,,,,,,,,,,,,,,,,,,,,,,,,,,,,,,,,,,,,,,,,,,,,,,,,,,,,,,,,,,,,,,,,,,,,,,2026-01-23_12h24.07.992,,,,,,,,311.343295625411,311.3503504162654,311.85580741614103,311.84273983351886,,,,,,,,,,,,,,,,,,,,,,,,,,,,,,,,,,,,,123456,1,Right,1,2026-01-23_12h24.07.992,EmoNback_Behavioral,,2025.1.1,None,2026-01-23 12h24.20.588612 -0600,
6,6,0,7,1,VM Stimuli/7F_NC.bmp,nonlure,nontarget,NeutFace,0-Back,None,0,VM Stimuli/AF218_NC.bmp,1,0,1,0,0,6,6,6,,,,,,,,,311.85580741614103,,,,,,,,,,,,,,,,,,,,,,,,,,,,,,,,,,,,,,,,,,,,,,,,,,,,,,,,,,,,,,311.8433223757893,,311.8433452080935,311.8451615413651,311.84520225040615,311.84914612490684,311.85580741614103,311.85580741614103,311.85580741614103,311.85580741614103,313.84824820794165,313.84824820794165,313.84824820794165,313.84824820794165,313.84253008291125,None,0,2,NA,NA,NA,2026-01-23_12h24.07.992,12:29:34,1,1,1,7,VM Stimuli/7F_NC.bmp,NeutFace,,,,,,,,,,,,,,,,,,,,,,,,,,,,,,,,,,,,,,,,,123456,1,Right,1,2026-01-23_12h24.07.992,EmoNback_Behavioral,,2025.1.1,None,2026-01-23 12h24.20.588612 -0600,
6,6,0,7,1,VM Stimuli/7F_NC.bmp,nonlure,nontarget,NeutFace,0-Back,None,0,VM Stimuli/AF218_NC.bmp,1,0,1,0,0,6,6,6,,,,,,,,,,,,,,,,,,,,,,,,,,,,,,,,,,,,,,,,,,,,,,,,,,,,,,,,,,,,,,,,,,,,,,,,,,,,,,,,,,,,,,,,,,,,2026-01-23_12h24.07.992,,,,,,,,313.84309383295476,313.84824820794165,314.350248250179,314.3330801250413,,,,,,,,,,,,,,,,,,,,,,,,,,,,,,,,,,,,,123456,1,Right,1,2026-01-23_12h24.07.992,EmoNback_Behavioral,,2025.1.1,None,2026-01-23 12h24.20.588612 -0600,
7,7,0,8,1,VM Stimuli/7F_NC.bmp,lure,nontarget,NeutFace,0-Back,None,0,VM Stimuli/AF218_NC.bmp,1,0,1,0,0,7,7,7,,,,,,,,,314.350248250179,,,,,,,,,,,,,,,,,,,,,,,,,,,,,,,,,,,,,,,,,,,,,,,,,,,,,,,,,,,,,,314.3336132084951,,314.3336334163323,314.33518387563527,314.3352147080004,314.33662175014615,314.350248250179,314.350248250179,314.350248250179,314.350248250179,,,,,316.3422064166516,None,0,2,NA,NA,NA,2026-01-23_12h24.07.992,12:29:36,1,1,1,8,VM Stimuli/7F_NC.bmp,NeutFace,,,,,,,,,,,,,,,,,,,,,,,,,,,,,,,,,,,,,,,,,123456,1,Right,1,2026-01-23_12h24.07.992,EmoNback_Behavioral,,2025.1.1,None,2026-01-23 12h24.20.588612 -0600,
7,7,0,8,1,VM Stimuli/7F_NC.bmp,lure,nontarget,NeutFace,0-Back,None,0,VM Stimuli/AF218_NC.bmp,1,0,1,0,0,7,7,7,,,,,,,,,,,,,,,,,,,,,,,,,,,,,,,,,,,,,,,,,,,,,,,,,,,,,,,,,,,,,,,,,,,,,,,,,,,,,,,,,,,,,,,,,,,,2026-01-23_12h24.07.992,,,,,,,,316.3429367085919,316.35063791647553,,316.84195000026375,,,,,,,,,,,,,,,,,,,,,,,,,,,,,,,,,,,,,123456,1,Right,1,2026-01-23_12h24.07.992,EmoNback_Behavioral,,2025.1.1,None,2026-01-23 12h24.20.588612 -0600,
8,8,0,9,1,VM Stimuli/42M_NC.bmp,lure,nontarget,NeutFace,0-Back,None,0,VM Stimuli/AF218_NC.bmp,1,0,1,0,0,8,8,8,,,,,,,,,316.85493695829064,,,,,,,,,,,,,,,,,,,,,,,,,,,,,,,,,,,,,,,,,,,,,,,,,,,,,,,,,,,,,,316.84258483350277,,316.8426183331758,316.84448395855725,316.8445264166221,316.84882320836186,316.85493695829064,316.85493695829064,316.85493695829064,316.85493695829064,318.8504543332383,318.8504543332383,318.8504543332383,318.8504543332383,318.84333437494934,None,0,2,NA,NA,NA,2026-01-23_12h24.07.992,12:29:39,1,1,1,9,VM Stimuli/42M_NC.bmp,NeutFace,,,,,,,,,,,,,,,,,,,,,,,,,,,,,,,,,,,,,,,,,123456,1,Right,1,2026-01-23_12h24.07.992,EmoNback_Behavioral,,2025.1.1,None,2026-01-23 12h24.20.588612 -0600,
8,8,0,9,1,VM Stimuli/42M_NC.bmp,lure,nontarget,NeutFace,0-Back,None,0,VM Stimuli/AF218_NC.bmp,1,0,1,0,0,8,8,8,,,,,,,,,,,,,,,,,,,,,,,,,,,,,,,,,,,,,,,,,,,,,,,,,,,,,,,,,,,,,,,,,,,,,,,,,,,,,,,,,,,,,,,,,,,,2026-01-23_12h24.07.992,,,,,,,,318.8444953756407,318.8504543332383,319.36816254165024,319.3333575837314,,,,,,,,,,,,,,,,,,,,,,,,,,,,,,,,,,,,,123456,1,Right,1,2026-01-23_12h24.07.992,EmoNback_Behavioral,,2025.1.1,None,2026-01-23 12h24.20.588612 -0600,
9,9,0,10,1,VM Stimuli/LM207_NC.bmp,nonlure,nontarget,NeutFace,0-Back,None,0,VM Stimuli/AF218_NC.bmp,1,0,1,0,0,9,9,9,,,,,,,,,319.36816254165024,,,,,,,,,,,,,,,,,,,,,,,,,,,,,,,,,,,,,,,,,,,,,,,,,,,,,,,,,,,,,,319.33538233302534,,319.33546295855194,319.3480227505788,319.3480635834858,319.3580302912742,319.36816254165024,319.36816254165024,319.36816254165024,319.36816254165024,,,,,321.3519840836525,None,0,2,NA,NA,NA,2026-01-23_12h24.07.992,12:29:41,1,1,1,10,VM Stimuli/LM207_NC.bmp,NeutFace,,,,,,,,,,,,,,,,,,,,,,,,,,,,,,,,,,,,,,,,,123456,1,Right,1,2026-01-23_12h24.07.992,EmoNback_Behavioral,,2025.1.1,None,2026-01-23 12h24.20.588612 -0600,
9,9,0,10,1,VM Stimuli/LM207_NC.bmp,nonlure,nontarget,NeutFace,0-Back,None,0,VM Stimuli/AF218_NC.bmp,1,0,1,0,0,9,9,9,,,,,,,,,,,,,,,,,,,,,,,,,,,,,,,,,,,,,,,,,,,,,,,,,,,,,,,,,,,,,,,,,,,,,,,,,,,,,,,,,,,,,,,,,,,,2026-01-23_12h24.07.992,,,,,,,,321.3528741663322,321.358454041183,321.8618408329785,321.8419724162668,,,,,,,,,,,,,,,,,,,,,,,,,,,,,,,,,,,,,123456,1,Right,1,2026-01-23_12h24.07.992,EmoNback_Behavioral,,2025.1.1,None,2026-01-23 12h24.20.588612 -0600,
0,0,0,1,1,VM Stimuli/17F_FO.bmp,nonlure,nontarget,NegFace,2-Back,None,0,,2,0,2,0,0,0,0,0,,,,,,,,,322.3643559580669,,,,,,,,,,,,,,,,,,,,,,,,,,,,,,,,,,,,,,,,,,,,,,,,,,,,,,,,,,,321.8574953330681,321.8618408329785,322.35167641658336,322.3574132081121,322.3643559580669,324.8418992087245,324.8740682499483,324.8741057505831,324.8780241664499,324.8839529585093,324.8839529585093,324.8839529585093,324.8839529585093,326.874827333726,326.874827333726,326.874827333726,326.874827333726,326.8670120416209,None,0,2,NA,NA,NA,2026-01-23_12h24.07.992,12:29:47,1,1,2,1,VM Stimuli/17F_FO.bmp,NegFace,,,,,321.84452166594565,321.84459587559104,322.3643559580669,,,,,,,,,,,,,,,,,,,,,,,,,,,,,,,,,,123456,1,Right,1,2026-01-23_12h24.07.992,EmoNback_Behavioral,,2025.1.1,None,2026-01-23 12h24.20.588612 -0600,
0,0,0,1,1,VM Stimuli/17F_FO.bmp,nonlure,nontarget,NegFace,2-Back,None,0,,2,0,2,0,0,0,0,0,,,,,,,,,,,,,,,,,,,,,,,,,,,,,,,,,,,,,,,,,,,,,,,,,,,,,,,,,,,,,,,,,,,,,,,,,,,,,,,,,,,,,,,,,,,,2026-01-23_12h24.07.992,,,,,,,,326.8674566661939,326.874827333726,327.3949361257255,327.3588322913274,,,,,,,,,,,,,,,,,,,,,,,,,,,,,,,,,,,,,123456,1,Right,1,2026-01-23_12h24.07.992,EmoNback_Behavioral,,2025.1.1,None,2026-01-23 12h24.20.588612 -0600,
1,1,0,2,1,VM Stimuli/HM03_FO.bmp,nonlure,nontarget,NegFace,2-Back,None,0,,2,0,2,0,0,1,1,1,,,,,,,,,327.3949361257255,,,,,,,,,,,,,,,,,,,,,,,,,,,,,,,,,,,,,,,,,,,,,,,,,,,,,,,,,,,,,,327.35959379095584,,327.359625833109,327.38436175044626,327.38440891634673,327.38774225022644,327.3949361257255,327.3949361257255,327.3949361257255,327.3949361257255,329.3915373329073,329.3915373329073,329.3915373329073,329.3915373329073,329.38301375042647,None,0,2,NA,NA,NA,2026-01-23_12h24.07.992,12:29:50,1,1,2,2,VM Stimuli/HM03_FO.bmp,NegFace,,,,,,,,,,,,,,,,,,,,,,,,,,,,,,,,,,,,,,,,,123456,1,Right,1,2026-01-23_12h24.07.992,EmoNback_Behavioral,,2025.1.1,None,2026-01-23 12h24.20.588612 -0600,
1,1,0,2,1,VM Stimuli/HM03_FO.bmp,nonlure,nontarget,NegFace,2-Back,None,0,,2,0,2,0,0,1,1,1,,,,,,,,,,,,,,,,,,,,,,,,,,,,,,,,,,,,,,,,,,,,,,,,,,,,,,,,,,,,,,,,,,,,,,,,,,,,,,,,,,,,,,,,,,,,2026-01-23_12h24.07.992,,,,,,,,329.3842862499878,329.3915373329073,329.9105829587206,329.87507004104555,,,,,,,,,,,,,,,,,,,,,,,,,,,,,,,,,,,,,123456,1,Right,1,2026-01-23_12h24.07.992,EmoNback_Behavioral,,2025.1.1,None,2026-01-23 12h24.20.588612 -0600,
2,2,0,3,1,VM Stimuli/BM045_FO.bmp,nonlure,nontarget,NegFace,2-Back,None,0,,2,0,2,0,0,2,2,2,,,,,,,,,329.9105829587206,,,,,,,,,,,,,,,,,,,,,,,,,,,,,,,,,,,,,,,,,,,,,,,,,,,,,,,,,,,,,,329.87567679118365,,329.87570012547076,329.9003070835024,329.90034020878375,329.9040824165568,329.9105829587206,329.9105829587206,329.9105829587206,329.9105829587206,331.9081738749519,331.9081738749519,331.9081738749519,331.9081738749519,331.8984705833718,None,0,2,NA,NA,NA,2026-01-23_12h24.07.992,12:29:52,1,1,2,3,VM Stimuli/BM045_FO.bmp,NegFace,,,,,,,,,,,,,,,,,,,,,,,,,,,,,,,,,,,,,,,,,123456,1,Right,1,2026-01-23_12h24.07.992,EmoNback_Behavioral,,2025.1.1,None,2026-01-23 12h24.20.588612 -0600,
2,2,0,3,1,VM Stimuli/BM045_FO.bmp,nonlure,nontarget,NegFace,2-Back,None,0,,2,0,2,0,0,2,2,2,,,,,,,,,,,,,,,,,,,,,,,,,,,,,,,,,,,,,,,,,,,,,,,,,,,,,,,,,,,,,,,,,,,,,,,,,,,,,,,,,,,,,,,,,,,,2026-01-23_12h24.07.992,,,,,,,,331.89892108365893,331.9081738749519,332.42667116597295,332.39213158376515,,,,,,,,,,,,,,,,,,,,,,,,,,,,,,,,,,,,,123456,1,Right,1,2026-01-23_12h24.07.992,EmoNback_Behavioral,,2025.1.1,None,2026-01-23 12h24.20.588612 -0600,
3,3,0,4,1,VM Stimuli/HM03_FO.bmp,target,Target,NegFace,2-Back,None,0,,2,0,2,0,0,3,3,3,,,,,,,,,332.42667116597295,,,,,,,,,,,,,,,,,,,,,,,,,,,,,,,,,,,,,,,,,,,,,,,,,,,,,,,,,,,,,,332.3930498752743,,332.39307645801455,332.4177498752251,332.41779545880854,332.42044395860285,332.42667116597295,332.42667116597295,332.42667116597295,332.42667116597295,334.4249786660075,334.4249786660075,334.4249786660075,334.4249786660075,334.4151674164459,None,0,1,NA,NA,NA,2026-01-23_12h24.07.992,12:29:55,1,1,2,4,VM Stimuli/HM03_FO.bmp,NegFace,,,,,,,,,,,,,,,,,,,,,,,,,,,,,,,,,,,,,,,,,123456,1,Right,1,2026-01-23_12h24.07.992,EmoNback_Behavioral,,2025.1.1,None,2026-01-23 12h24.20.588612 -0600,
3,3,0,4,1,VM Stimuli/HM03_FO.bmp,target,Target,NegFace,2-Back,None,0,,2,0,2,0,0,3,3,3,,,,,,,,,,,,,,,,,,,,,,,,,,,,,,,,,,,,,,,,,,,,,,,,,,,,,,,,,,,,,,,,,,,,,,,,,,,,,,,,,,,,,,,,,,,,2026-01-23_12h24.07.992,,,,,,,,334.4155759587884,334.4249786660075,334.9396695410833,334.908090791665,,,,,,,,,,,,,,,,,,,,,,,,,,,,,,,,,,,,,123456,1,Right,1,2026-01-23_12h24.07.992,EmoNback_Behavioral,,2025.1.1,None,2026-01-23 12h24.20.588612 -0600,
4,4,0,5,1,VM Stimuli/17F_FO.bmp,lure,nontarget,NegFace,2-Back,None,0,,2,0,2,0,0,4,4,4,,,,,,,,,334.9396695410833,,,,,,,,,,,,,,,,,,,,,,,,,,,,,,,,,,,,,,,,,,,,,,,,,,,,,,,,,,,,,,334.9086333755404,,334.90865716617554,334.93035970814526,334.9303920008242,334.9339522086084,334.9396695410833,334.9396695410833,334.9396695410833,334.9396695410833,336.93095466680825,336.93095466680825,336.93095466680825,336.93095466680825,336.92539995815605,None,0,2,NA,NA,NA,2026-01-23_12h24.07.992,12:29:57,1,1,2,5,VM Stimuli/17F_FO.bmp,NegFace,,,,,,,,,,,,,,,,,,,,,,,,,,,,,,,,,,,,,,,,,123456,1,Right,1,2026-01-23_12h24.07.992,EmoNback_Behavioral,,2025.1.1,None,2026-01-23 12h24.20.588612 -0600,
4,4,0,5,1,VM Stimuli/17F_FO.bmp,lure,nontarget,NegFace,2-Back,None,0,,2,0,2,0,0,4,4,4,,,,,,,,,,,,,,,,,,,,,,,,,,,,,,,,,,,,,,,,,,,,,,,,,,,,,,,,,,,,,,,,,,,,,,,,,,,,,,,,,,,,,,,,,,,,2026-01-23_12h24.07.992,,,,,,,,336.9259090833366,336.93095466680825,337.4462953750044,337.41572833340615,,,,,,,,,,,,,,,,,,,,,,,,,,,,,,,,,,,,,123456,1,Right,1,2026-01-23_12h24.07.992,EmoNback_Behavioral,,2025.1.1,None,2026-01-23 12h24.20.588612 -0600,
5,5,0,6,1,VM Stimuli/BM045_FO.bmp,lure,nontarget,NegFace,2-Back,None,0,,2,0,2,0,0,5,5,5,,,,,,,,,337.4462953750044,,,,,,,,,,,,,,,,,,,,,,,,,,,,,,,,,,,,,,,,,,,,,,,,,,,,,,,,,,,,,,337.4162298757583,,337.41625070851296,337.43674387503415,337.43677558377385,337.43984237499535,337.4462953750044,337.4462953750044,337.4462953750044,337.4462953750044,,,,,339.4381790831685,None,0,2,NA,NA,NA,2026-01-23_12h24.07.992,12:30:00,1,1,2,6,VM Stimuli/BM045_FO.bmp,NegFace,,,,,,,,,,,,,,,,,,,,,,,,,,,,,,,,,,,,,,,,,123456,1,Right,1,2026-01-23_12h24.07.992,EmoNback_Behavioral,,2025.1.1,None,2026-01-23 12h24.20.588612 -0600,
5,5,0,6,1,VM Stimuli/BM045_FO.bmp,lure,nontarget,NegFace,2-Back,None,0,,2,0,2,0,0,5,5,5,,,,,,,,,,,,,,,,,,,,,,,,,,,,,,,,,,,,,,,,,,,,,,,,,,,,,,,,,,,,,,,,,,,,,,,,,,,,,,,,,,,,,,,,,,,,2026-01-23_12h24.07.992,,,,,,,,339.4386345837265,339.4484733333811,339.9561122506857,339.9310736665502,,,,,,,,,,,,,,,,,,,,,,,,,,,,,,,,,,,,,123456,1,Right,1,2026-01-23_12h24.07.992,EmoNback_Behavioral,,2025.1.1,None,2026-01-23 12h24.20.588612 -0600,
6,6,0,7,1,VM Stimuli/9F_FO.bmp,nonlure,nontarget,NegFace,2-Back,None,0,,2,0,2,0,0,6,6,6,,,,,,,,,339.9561122506857,,,,,,,,,,,,,,,,,,,,,,,,,,,,,,,,,,,,,,,,,,,,,,,,,,,,,,,,,,,,,,339.9316062917933,,339.9316288754344,339.9469702914357,339.9470032081008,339.95064720790833,339.9561122506857,339.9561122506857,339.9561122506857,339.9561122506857,341.9470730414614,341.9470730414614,341.9470730414614,341.9470730414614,341.94129370804876,None,0,2,NA,NA,NA,2026-01-23_12h24.07.992,12:30:02,1,1,2,7,VM Stimuli/9F_FO.bmp,NegFace,,,,,,,,,,,,,,,,,,,,,,,,,,,,,,,,,,,,,,,,,123456,1,Right,1,2026-01-23_12h24.07.992,EmoNback_Behavioral,,2025.1.1,None,2026-01-23 12h24.20.588612 -0600,
6,6,0,7,1,VM Stimuli/9F_FO.bmp,nonlure,nontarget,NegFace,2-Back,None,0,,2,0,2,0,0,6,6,6,,,,,,,,,,,,,,,,,,,,,,,,,,,,,,,,,,,,,,,,,,,,,,,,,,,,,,,,,,,,,,,,,,,,,,,,,,,,,,,,,,,,,,,,,,,,2026-01-23_12h24.07.992,,,,,,,,341.9417481664568,341.9470730414614,,342.4906580829993,,,,,,,,,,,,,,,,,,,,,,,,,,,,,,,,,,,,,123456,1,Right,1,2026-01-23_12h24.07.992,EmoNback_Behavioral,,2025.1.1,None,2026-01-23 12h24.20.588612 -0600,
7,7,0,8,1,VM Stimuli/WM004_FO.bmp,nonlure,nontarget,NegFace,2-Back,None,0,,2,0,2,0,0,7,7,7,,,,,,,,,342.52967991679907,,,,,,,,,,,,,,,,,,,,,,,,,,,,,,,,,,,,,,,,,,,,,,,,,,,,,,,,,,,,,,342.49205354135484,,342.492099750787,342.5144202914089,342.51445933338255,342.52234070841223,342.52967991679907,342.52967991679907,342.52967991679907,342.52967991679907,344.5248941257596,344.5248941257596,344.5248941257596,344.5248941257596,344.5133600831032,None,0,2,NA,NA,NA,2026-01-23_12h24.07.992,12:30:05,1,1,2,8,VM Stimuli/WM004_FO.bmp,NegFace,,,,,,,,,,,,,,,,,,,,,,,,,,,,,,,,,,,,,,,,,123456,1,Right,1,2026-01-23_12h24.07.992,EmoNback_Behavioral,,2025.1.1,None,2026-01-23 12h24.20.588612 -0600,
7,7,0,8,1,VM Stimuli/WM004_FO.bmp,nonlure,nontarget,NegFace,2-Back,None,0,,2,0,2,0,0,7,7,7,,,,,,,,,,,,,,,,,,,,,,,,,,,,,,,,,,,,,,,,,,,,,,,,,,,,,,,,,,,,,,,,,,,,,,,,,,,,,,,,,,,,,,,,,,,,2026-01-23_12h24.07.992,,,,,,,,344.5137952500954,344.5248941257596,345.0321815004572,345.00789837539196,,,,,,,,,,,,,,,,,,,,,,,,,,,,,,,,,,,,,123456,1,Right,1,2026-01-23_12h24.07.992,EmoNback_Behavioral,,2025.1.1,None,2026-01-23 12h24.20.588612 -0600,
8,8,0,9,1,VM Stimuli/9F_FO.bmp,target,Target,NegFace,2-Back,None,0,,2,0,2,0,0,8,8,8,,,,,,,,,345.0321815004572,,,,,,,,,,,,,,,,,,,,,,,,,,,,,,,,,,,,,,,,,,,,,,,,,,,,,,,,,,,,,,345.00844525080174,,345.0084681250155,345.02365916594863,345.023693125695,345.0254562506452,345.0321815004572,345.0321815004572,345.0321815004572,345.0321815004572,,,,,347.0247429162264,None,0,1,NA,NA,NA,2026-01-23_12h24.07.992,12:30:07,1,1,2,9,VM Stimuli/9F_FO.bmp,NegFace,,,,,,,,,,,,,,,,,,,,,,,,,,,,,,,,,,,,,,,,,123456,1,Right,1,2026-01-23_12h24.07.992,EmoNback_Behavioral,,2025.1.1,None,2026-01-23 12h24.20.588612 -0600,
8,8,0,9,1,VM Stimuli/9F_FO.bmp,target,Target,NegFace,2-Back,None,0,,2,0,2,0,0,8,8,8,,,,,,,,,,,,,,,,,,,,,,,,,,,,,,,,,,,,,,,,,,,,,,,,,,,,,,,,,,,,,,,,,,,,,,,,,,,,,,,,,,,,,,,,,,,,2026-01-23_12h24.07.992,,,,,,,,347.02526291646063,347.03264545835555,,347.5247579161078,,,,,,,,,,,,,,,,,,,,,,,,,,,,,,,,,,,,,123456,1,Right,1,2026-01-23_12h24.07.992,EmoNback_Behavioral,,2025.1.1,None,2026-01-23 12h24.20.588612 -0600,
9,9,0,10,1,VM Stimuli/BF06_FO.bmp,nonlure,nontarget,NegFace,2-Back,None,0,,2,0,2,0,0,9,9,9,,,,,,,,,347.554921541363,,,,,,,,,,,,,,,,,,,,,,,,,,,,,,,,,,,,,,,,,,,,,,,,,,,,,,,,,,,,,,347.52535070851445,,347.525374208577,347.5466425837949,347.5466744164005,347.54930812492967,347.554921541363,347.554921541363,347.554921541363,347.554921541363,349.5486936662346,349.5486936662346,349.5486936662346,349.5486936662346,349.541820500046,None,0,2,NA,NA,NA,2026-01-23_12h24.07.992,12:30:10,1,1,2,10,VM Stimuli/BF06_FO.bmp,NegFace,,,,,,,,,,,,,,,,,,,,,,,,,,,,,,,,,,,,,,,,,123456,1,Right,1,2026-01-23_12h24.07.992,EmoNback_Behavioral,,2025.1.1,None,2026-01-23 12h24.20.588612 -0600,
9,9,0,10,1,VM Stimuli/BF06_FO.bmp,nonlure,nontarget,NegFace,2-Back,None,0,,2,0,2,0,0,9,9,9,,,,,,,,,,,,,,,,,,,,,,,,,,,,,,,,,,,,,,,,,,,,,,,,,,,,,,,,,,,,,,,,,,,,,,,,,,,,,,,,,,,,,,,,,,,,2026-01-23_12h24.07.992,,,,,,,,349.54302400071174,349.5486936662346,350.06179483328015,350.0316782500595,,,,,,,,,,,,,,,,,,,,,,,,,,,,,,,,,,,,,123456,1,Right,1,2026-01-23_12h24.07.992,EmoNback_Behavioral,,2025.1.1,None,2026-01-23 12h24.20.588612 -0600,
0,0,0,1,1,VM Stimuli/34M_HO.bmp,target,Target,PosFace,0-Back,None,0,VM Stimuli/34M_HO.bmp,3,0,3,0,0,0,0,0,,,,,,,,,350.5644594579935,,,,,,,,,,,,,,,,,,,,,,,,,,,,,,,,,,,,,,,,,,,,,,,,,,,,,,,,,,,350.05497775040567,350.06179483328015,350.5458913333714,350.5518024582416,,350.55182908382267,350.55817270837724,353.0414155414328,353.04423420876265,353.05062729120255,353.05062729120255,353.05062729120255,353.05062729120255,355.05770562496036,355.05770562496036,355.05770562496036,355.05770562496036,355.04244283307344,None,0,1,NA,NA,NA,2026-01-23_12h24.07.992,12:30:15,1,1,3,1,VM Stimuli/34M_HO.bmp,PosFace,,,,,350.0338087910786,350.0338623756543,350.5644594579935,350.5644594579935,350.5644594579935,,,,,,,,,,,,,,,,,,,,,,,,,,,,,,,,123456,1,Right,1,2026-01-23_12h24.07.992,EmoNback_Behavioral,,2025.1.1,None,2026-01-23 12h24.20.588612 -0600,
0,0,0,1,1,VM Stimuli/34M_HO.bmp,target,Target,PosFace,0-Back,None,0,VM Stimuli/34M_HO.bmp,3,0,3,0,0,0,0,0,,,,,,,,,,,,,,,,,,,,,,,,,,,,,,,,,,,,,,,,,,,,,,,,,,,,,,,,,,,,,,,,,,,,,,,,,,,,,,,,,,,,,,,,,,,,2026-01-23_12h24.07.992,,,,,,,,355.0429085409269,355.05770562496036,355.5545048750937,355.5414538756013,,,,,,,,,,,,,,,,,,,,,,,,,,,,,,,,,,,,,123456,1,Right,1,2026-01-23_12h24.07.992,EmoNback_Behavioral,,2025.1.1,None,2026-01-23 12h24.20.588612 -0600,
1,1,0,2,1,VM Stimuli/BM08_HO.bmp,nonlure,nontarget,PosFace,0-Back,None,0,VM Stimuli/34M_HO.bmp,3,0,3,0,0,1,1,1,,,,,,,,,355.5545048750937,,,,,,,,,,,,,,,,,,,,,,,,,,,,,,,,,,,,,,,,,,,,,,,,,,,,,,,,,,,,,,355.54208766669035,,355.542110000737,355.5443552080542,355.54439091682434,355.5485076662153,355.5545048750937,355.5545048750937,355.5545048750937,355.5545048750937,357.5471073333174,357.5471073333174,357.5471073333174,357.5471073333174,357.54150766599923,None,0,2,NA,NA,NA,2026-01-23_12h24.07.992,12:30:18,1,1,3,2,VM Stimuli/BM08_HO.bmp,PosFace,,,,,,,,,,,,,,,,,,,,,,,,,,,,,,,,,,,,,,,,,123456,1,Right,1,2026-01-23_12h24.07.992,EmoNback_Behavioral,,2025.1.1,None,2026-01-23 12h24.20.588612 -0600,
1,1,0,2,1,VM Stimuli/BM08_HO.bmp,nonlure,nontarget,PosFace,0-Back,None,0,VM Stimuli/34M_HO.bmp,3,0,3,0,0,1,1,1,,,,,,,,,,,,,,,,,,,,,,,,,,,,,,,,,,,,,,,,,,,,,,,,,,,,,,,,,,,,,,,,,,,,,,,,,,,,,,,,,,,,,,,,,,,,2026-01-23_12h24.07.992,,,,,,,,357.5420616250485,357.5471073333174,358.0460320832208,358.0325099583715,,,,,,,,,,,,,,,,,,,,,,,,,,,,,,,,,,,,,123456,1,Right,1,2026-01-23_12h24.07.992,EmoNback_Behavioral,,2025.1.1,None,2026-01-23 12h24.20.588612 -0600,
2,2,0,3,1,VM Stimuli/HF04_HO.bmp,nonlure,nontarget,PosFace,0-Back,None,0,VM Stimuli/34M_HO.bmp,3,0,3,0,0,2,2,2,,,,,,,,,358.0460320832208,,,,,,,,,,,,,,,,,,,,,,,,,,,,,,,,,,,,,,,,,,,,,,,,,,,,,,,,,,,,,,358.03309883363545,,358.0331200007349,358.0347530413419,358.034778916277,358.0373863335699,358.0460320832208,358.0460320832208,358.0460320832208,358.0460320832208,360.0408363332972,360.0408363332972,360.0408363332972,360.0408363332972,360.03122220840305,None,0,2,NA,NA,NA,2026-01-23_12h24.07.992,12:30:20,1,1,3,3,VM Stimuli/HF04_HO.bmp,PosFace,,,,,,,,,,,,,,,,,,,,,,,,,,,,,,,,,,,,,,,,,123456,1,Right,1,2026-01-23_12h24.07.992,EmoNback_Behavioral,,2025.1.1,None,2026-01-23 12h24.20.588612 -0600,
2,2,0,3,1,VM Stimuli/HF04_HO.bmp,nonlure,nontarget,PosFace,0-Back,None,0,VM Stimuli/34M_HO.bmp,3,0,3,0,0,2,2,2,,,,,,,,,,,,,,,,,,,,,,,,,,,,,,,,,,,,,,,,,,,,,,,,,,,,,,,,,,,,,,,,,,,,,,,,,,,,,,,,,,,,,,,,,,,,2026-01-23_12h24.07.992,,,,,,,,360.0317184161395,360.0408363332972,360.53575566597283,360.5242841253057,,,,,,,,,,,,,,,,,,,,,,,,,,,,,,,,,,,,,123456,1,Right,1,2026-01-23_12h24.07.992,EmoNback_Behavioral,,2025.1.1,None,2026-01-23 12h24.20.588612 -0600,
3,3,0,4,1,VM Stimuli/BF002_HO.bmp,nonlure,nontarget,PosFace,0-Back,None,0,VM Stimuli/34M_HO.bmp,3,0,3,0,0,3,3,3,,,,,,,,,360.53575566597283,,,,,,,,,,,,,,,,,,,,,,,,,,,,,,,,,,,,,,,,,,,,,,,,,,,,,,,,,,,,,,360.52485837507993,,360.52489100024104,360.52670208364725,360.5267327083275,360.529737832956,360.53575566597283,360.53575566597283,360.53575566597283,360.53575566597283,362.52950641606003,362.52950641606003,362.52950641606003,362.52950641606003,362.5242982506752,None,0,2,NA,NA,NA,2026-01-23_12h24.07.992,12:30:23,1,1,3,4,VM Stimuli/BF002_HO.bmp,PosFace,,,,,,,,,,,,,,,,,,,,,,,,,,,,,,,,,,,,,,,,,123456,1,Right,1,2026-01-23_12h24.07.992,EmoNback_Behavioral,,2025.1.1,None,2026-01-23 12h24.20.588612 -0600,
3,3,0,4,1,VM Stimuli/BF002_HO.bmp,nonlure,nontarget,PosFace,0-Back,None,0,VM Stimuli/34M_HO.bmp,3,0,3,0,0,3,3,3,,,,,,,,,,,,,,,,,,,,,,,,,,,,,,,,,,,,,,,,,,,,,,,,,,,,,,,,,,,,,,,,,,,,,,,,,,,,,,,,,,,,,,,,,,,,2026-01-23_12h24.07.992,,,,,,,,362.52477233298123,362.52950641606003,363.0286776255816,363.01580283325166,,,,,,,,,,,,,,,,,,,,,,,,,,,,,,,,,,,,,123456,1,Right,1,2026-01-23_12h24.07.992,EmoNback_Behavioral,,2025.1.1,None,2026-01-23 12h24.20.588612 -0600,
4,4,0,5,1,VM Stimuli/BM08_HO.bmp,lure,nontarget,PosFace,0-Back,None,0,VM Stimuli/34M_HO.bmp,3,0,3,0,0,4,4,4,,,,,,,,,363.0286776255816,,,,,,,,,,,,,,,,,,,,,,,,,,,,,,,,,,,,,,,,,,,,,,,,,,,,,,,,,,,,,,363.01628791633993,,363.01630845852196,363.01808183360845,363.01813525054604,363.0218666251749,363.0286776255816,363.0286776255816,363.0286776255816,363.0286776255816,365.0239691659808,365.0239691659808,365.0239691659808,365.0239691659808,365.0155999166891,None,0,2,NA,NA,NA,2026-01-23_12h24.07.992,12:30:25,1,1,3,5,VM Stimuli/BM08_HO.bmp,PosFace,,,,,,,,,,,,,,,,,,,,,,,,,,,,,,,,,,,,,,,,,123456,1,Right,1,2026-01-23_12h24.07.992,EmoNback_Behavioral,,2025.1.1,None,2026-01-23 12h24.20.588612 -0600,
4,4,0,5,1,VM Stimuli/BM08_HO.bmp,lure,nontarget,PosFace,0-Back,None,0,VM Stimuli/34M_HO.bmp,3,0,3,0,0,4,4,4,,,,,,,,,,,,,,,,,,,,,,,,,,,,,,,,,,,,,,,,,,,,,,,,,,,,,,,,,,,,,,,,,,,,,,,,,,,,,,,,,,,,,,,,,,,,2026-01-23_12h24.07.992,,,,,,,,365.01605337578803,365.0239691659808,365.5207614162937,365.5074577499181,,,,,,,,,,,,,,,,,,,,,,,,,,,,,,,,,,,,,123456,1,Right,1,2026-01-23_12h24.07.992,EmoNback_Behavioral,,2025.1.1,None,2026-01-23 12h24.20.588612 -0600,
5,5,0,6,1,VM Stimuli/45M_HO.bmp,nonlure,nontarget,PosFace,0-Back,None,0,VM Stimuli/34M_HO.bmp,3,0,3,0,0,5,5,5,,,,,,,,,365.5207614162937,,,,,,,,,,,,,,,,,,,,,,,,,,,,,,,,,,,,,,,,,,,,,,,,,,,,,,,,,,,,,,365.5080006662756,,365.5080210417509,365.50980083364993,365.50983895827085,365.5136813754216,365.5207614162937,365.5207614162937,365.5207614162937,365.5207614162937,367.5151010416448,367.5151010416448,367.5151010416448,367.5151010416448,367.507412083447,None,0,2,NA,NA,NA,2026-01-23_12h24.07.992,12:30:28,1,1,3,6,VM Stimuli/45M_HO.bmp,PosFace,,,,,,,,,,,,,,,,,,,,,,,,,,,,,,,,,,,,,,,,,123456,1,Right,1,2026-01-23_12h24.07.992,EmoNback_Behavioral,,2025.1.1,None,2026-01-23 12h24.20.588612 -0600,
5,5,0,6,1,VM Stimuli/45M_HO.bmp,nonlure,nontarget,PosFace,0-Back,None,0,VM Stimuli/34M_HO.bmp,3,0,3,0,0,5,5,5,,,,,,,,,,,,,,,,,,,,,,,,,,,,,,,,,,,,,,,,,,,,,,,,,,,,,,,,,,,,,,,,,,,,,,,,,,,,,,,,,,,,,,,,,,,,2026-01-23_12h24.07.992,,,,,,,,367.50791008304805,367.5151010416448,368.01871825009584,368.0075401253998,,,,,,,,,,,,,,,,,,,,,,,,,,,,,,,,,,,,,123456,1,Right,1,2026-01-23_12h24.07.992,EmoNback_Behavioral,,2025.1.1,None,2026-01-23 12h24.20.588612 -0600,
6,6,0,7,1,VM Stimuli/45M_HO.bmp,lure,nontarget,PosFace,0-Back,None,0,VM Stimuli/34M_HO.bmp,3,0,3,0,0,6,6,6,,,,,,,,,368.01871825009584,,,,,,,,,,,,,,,,,,,,,,,,,,,,,,,,,,,,,,,,,,,,,,,,,,,,,,,,,,,,,,368.0081364167854,,368.008158958517,368.00988612510264,368.00992129091173,368.0119880409911,368.01871825009584,368.01871825009584,368.01871825009584,368.01871825009584,370.02590274997056,370.02590274997056,370.02590274997056,370.02590274997056,370.0072888750583,None,0,2,NA,NA,NA,2026-01-23_12h24.07.992,12:30:30,1,1,3,7,VM Stimuli/45M_HO.bmp,PosFace,,,,,,,,,,,,,,,,,,,,,,,,,,,,,,,,,,,,,,,,,123456,1,Right,1,2026-01-23_12h24.07.992,EmoNback_Behavioral,,2025.1.1,None,2026-01-23 12h24.20.588612 -0600,
6,6,0,7,1,VM Stimuli/45M_HO.bmp,lure,nontarget,PosFace,0-Back,None,0,VM Stimuli/34M_HO.bmp,3,0,3,0,0,6,6,6,,,,,,,,,,,,,,,,,,,,,,,,,,,,,,,,,,,,,,,,,,,,,,,,,,,,,,,,,,,,,,,,,,,,,,,,,,,,,,,,,,,,,,,,,,,,2026-01-23_12h24.07.992,,,,,,,,370.00774458330125,370.02590274997056,,370.51542825065553,,,,,,,,,,,,,,,,,,,,,,,,,,,,,,,,,,,,,123456,1,Right,1,2026-01-23_12h24.07.992,EmoNback_Behavioral,,2025.1.1,None,2026-01-23 12h24.20.588612 -0600,
7,7,0,8,1,VM Stimuli/BF002_HO.bmp,lure,nontarget,PosFace,0-Back,None,0,VM Stimuli/34M_HO.bmp,3,0,3,0,0,7,7,7,,,,,,,,,370.52794104162604,,,,,,,,,,,,,,,,,,,,,,,,,,,,,,,,,,,,,,,,,,,,,,,,,,,,,,,,,,,,,,370.51610533334315,,370.51612879149616,370.51791058294475,370.5179420411587,370.5213799159974,370.52794104162604,370.52794104162604,370.52794104162604,370.52794104162604,372.5238779587671,372.5238779587671,372.5238779587671,372.5238779587671,372.51537583302706,None,0,2,NA,NA,NA,2026-01-23_12h24.07.992,12:30:33,1,1,3,8,VM Stimuli/BF002_HO.bmp,PosFace,,,,,,,,,,,,,,,,,,,,,,,,,,,,,,,,,,,,,,,,,123456,1,Right,1,2026-01-23_12h24.07.992,EmoNback_Behavioral,,2025.1.1,None,2026-01-23 12h24.20.588612 -0600,
7,7,0,8,1,VM Stimuli/BF002_HO.bmp,lure,nontarget,PosFace,0-Back,None,0,VM Stimuli/34M_HO.bmp,3,0,3,0,0,7,7,7,,,,,,,,,,,,,,,,,,,,,,,,,,,,,,,,,,,,,,,,,,,,,,,,,,,,,,,,,,,,,,,,,,,,,,,,,,,,,,,,,,,,,,,,,,,,2026-01-23_12h24.07.992,,,,,,,,372.515818416141,372.5238779587671,373.019273750484,373.0072834584862,,,,,,,,,,,,,,,,,,,,,,,,,,,,,,,,,,,,,123456,1,Right,1,2026-01-23_12h24.07.992,EmoNback_Behavioral,,2025.1.1,None,2026-01-23 12h24.20.588612 -0600,
8,8,0,9,1,VM Stimuli/34M_HO.bmp,target,Target,PosFace,0-Back,None,0,VM Stimuli/34M_HO.bmp,3,0,3,0,0,8,8,8,,,,,,,,,373.019273750484,,,,,,,,,,,,,,,,,,,,,,,,,,,,,,,,,,,,,,,,,,,,,,,,,,,,,,,,,,,,,,373.0080072088167,,373.00804554112256,373.01017575059086,373.01021591667086,373.0123260002583,373.019273750484,373.019273750484,373.019273750484,373.019273750484,375.01419270876795,375.01419270876795,375.01419270876795,375.01419270876795,375.0071467505768,None,0,1,NA,NA,NA,2026-01-23_12h24.07.992,12:30:35,1,1,3,9,VM Stimuli/34M_HO.bmp,PosFace,,,,,,,,,,,,,,,,,,,,,,,,,,,,,,,,,,,,,,,,,123456,1,Right,1,2026-01-23_12h24.07.992,EmoNback_Behavioral,,2025.1.1,None,2026-01-23 12h24.20.588612 -0600,
8,8,0,9,1,VM Stimuli/34M_HO.bmp,target,Target,PosFace,0-Back,None,0,VM Stimuli/34M_HO.bmp,3,0,3,0,0,8,8,8,,,,,,,,,,,,,,,,,,,,,,,,,,,,,,,,,,,,,,,,,,,,,,,,,,,,,,,,,,,,,,,,,,,,,,,,,,,,,,,,,,,,,,,,,,,,2026-01-23_12h24.07.992,,,,,,,,375.0078647499904,375.01419270876795,375.5129948752001,375.49845325015485,,,,,,,,,,,,,,,,,,,,,,,,,,,,,,,,,,,,,123456,1,Right,1,2026-01-23_12h24.07.992,EmoNback_Behavioral,,2025.1.1,None,2026-01-23 12h24.20.588612 -0600,
9,9,0,10,1,VM Stimuli/WF07_HO.bmp,nonlure,nontarget,PosFace,0-Back,None,0,VM Stimuli/34M_HO.bmp,3,0,3,0,0,9,9,9,,,,,,,,,375.5129948752001,,,,,,,,,,,,,,,,,,,,,,,,,,,,,,,,,,,,,,,,,,,,,,,,,,,,,,,,,,,,,,375.49903362523764,,375.4990547914058,375.50068837497383,375.5007177917287,375.50445729121566,375.5129948752001,375.5129948752001,375.5129948752001,375.5129948752001,377.5069153336808,377.5069153336808,377.5069153336808,377.5069153336808,377.49781899992377,None,0,2,NA,NA,NA,2026-01-23_12h24.07.992,12:30:38,1,1,3,10,VM Stimuli/WF07_HO.bmp,PosFace,,,,,,,,,,,,,,,,,,,,,,,,,,,,,,,,,,,,,,,,,123456,1,Right,1,2026-01-23_12h24.07.992,EmoNback_Behavioral,,2025.1.1,None,2026-01-23 12h24.20.588612 -0600,
9,9,0,10,1,VM Stimuli/WF07_HO.bmp,nonlure,nontarget,PosFace,0-Back,None,0,VM Stimuli/34M_HO.bmp,3,0,3,0,0,9,9,9,,,,,,,,,,,,,,,,,,,,,,,,,,,,,,,,,,,,,,,,,,,,,,,,,,,,,,,,,,,,,,,,,,,,,,,,,,,,,,,,,,,,,,,,,,,,2026-01-23_12h24.07.992,,,,,,,,377.4982980415225,377.5069153336808,378.00970400031656,377.99128545820713,,,,,,,,,,,,,,,,,,,,,,,,,,,,,,,,,,,,,123456,1,Right,1,2026-01-23_12h24.07.992,EmoNback_Behavioral,,2025.1.1,None,2026-01-23 12h24.20.588612 -0600,
0,0,0,1,1,VM Stimuli/PL_003_92016.bmp,nonlure,nontarget,Place,0-Back,None,0,VM Stimuli/PL_001_92012.bmp,4,0,4,0,0,0,0,0,,,,,,,,,378.55231804121286,,,,,,,,,,,,,,,,,,,,,,,,,,,,,,,,,,,,,,,,,,,,,,,,,,,,,,,,,,,378.00483416672796,378.00970400031656,378.50041854102165,378.52261283341795,,378.5226622503251,378.54447029158473,381.0071652503684,381.0136497914791,381.0207724580541,381.0207724580541,381.0207724580541,381.0207724580541,383.0121327918023,383.0121327918023,383.0121327918023,383.0121327918023,383.00691983290017,None,0,2,NA,NA,NA,2026-01-23_12h24.07.992,12:30:43,1,1,4,1,VM Stimuli/PL_003_92016.bmp,Place,,,,,377.9936096249148,377.9936762508005,378.55231804121286,378.55231804121286,378.55231804121286,,,,,,,,,,,,,,,,,,,,,,,,,,,,,,,,123456,1,Right,1,2026-01-23_12h24.07.992,EmoNback_Behavioral,,2025.1.1,None,2026-01-23 12h24.20.588612 -0600,
0,0,0,1,1,VM Stimuli/PL_003_92016.bmp,nonlure,nontarget,Place,0-Back,None,0,VM Stimuli/PL_001_92012.bmp,4,0,4,0,0,0,0,0,,,,,,,,,,,,,,,,,,,,,,,,,,,,,,,,,,,,,,,,,,,,,,,,,,,,,,,,,,,,,,,,,,,,,,,,,,,,,,,,,,,,,,,,,,,,2026-01-23_12h24.07.992,,,,,,,,383.00769945792854,383.0121327918023,383.52383000031114,383.49695337563753,,,,,,,,,,,,,,,,,,,,,,,,,,,,,,,,,,,,,123456,1,Right,1,2026-01-23_12h24.07.992,EmoNback_Behavioral,,2025.1.1,None,2026-01-23 12h24.20.588612 -0600,
1,1,0,2,1,VM Stimuli/PL_003_92016.bmp,lure,nontarget,Place,0-Back,None,0,VM Stimuli/PL_001_92012.bmp,4,0,4,0,0,1,1,1,,,,,,,,,383.52383000031114,,,,,,,,,,,,,,,,,,,,,,,,,,,,,,,,,,,,,,,,,,,,,,,,,,,,,,,,,,,,,,383.4975823331624,,383.4976040003821,383.4998817909509,383.49991583358496,383.5017901659012,383.52383000031114,383.52383000031114,383.52383000031114,383.52383000031114,,,,,385.5067812912166,None,0,2,NA,NA,NA,2026-01-23_12h24.07.992,12:30:46,1,1,4,2,VM Stimuli/PL_003_92016.bmp,Place,,,,,,,,,,,,,,,,,,,,,,,,,,,,,,,,,,,,,,,,,123456,1,Right,1,2026-01-23_12h24.07.992,EmoNback_Behavioral,,2025.1.1,None,2026-01-23 12h24.20.588612 -0600,
1,1,0,2,1,VM Stimuli/PL_003_92016.bmp,lure,nontarget,Place,0-Back,None,0,VM Stimuli/PL_001_92012.bmp,4,0,4,0,0,1,1,1,,,,,,,,,,,,,,,,,,,,,,,,,,,,,,,,,,,,,,,,,,,,,,,,,,,,,,,,,,,,,,,,,,,,,,,,,,,,,,,,,,,,,,,,,,,,2026-01-23_12h24.07.992,,,,,,,,385.5072412081063,385.51196675002575,386.01270737499,385.9999132081866,,,,,,,,,,,,,,,,,,,,,,,,,,,,,,,,,,,,,123456,1,Right,1,2026-01-23_12h24.07.992,EmoNback_Behavioral,,2025.1.1,None,2026-01-23 12h24.20.588612 -0600,
2,2,0,3,1,VM Stimuli/PL_006_92025.bmp,nonlure,nontarget,Place,0-Back,None,0,VM Stimuli/PL_001_92012.bmp,4,0,4,0,0,2,2,2,,,,,,,,,386.01270737499,,,,,,,,,,,,,,,,,,,,,,,,,,,,,,,,,,,,,,,,,,,,,,,,,,,,,,,,,,,,,,386.000556666404,,386.0005779163912,386.0029525831342,386.0029889587313,386.00675729103386,386.01270737499,386.01270737499,386.01270737499,386.01270737499,388.00656545814127,388.00656545814127,388.00656545814127,388.00656545814127,387.9995540836826,None,0,2,NA,NA,NA,2026-01-23_12h24.07.992,12:30:48,1,1,4,3,VM Stimuli/PL_006_92025.bmp,Place,,,,,,,,,,,,,,,,,,,,,,,,,,,,,,,,,,,,,,,,,123456,1,Right,1,2026-01-23_12h24.07.992,EmoNback_Behavioral,,2025.1.1,None,2026-01-23 12h24.20.588612 -0600,
2,2,0,3,1,VM Stimuli/PL_006_92025.bmp,nonlure,nontarget,Place,0-Back,None,0,VM Stimuli/PL_001_92012.bmp,4,0,4,0,0,2,2,2,,,,,,,,,,,,,,,,,,,,,,,,,,,,,,,,,,,,,,,,,,,,,,,,,,,,,,,,,,,,,,,,,,,,,,,,,,,,,,,,,,,,,,,,,,,,2026-01-23_12h24.07.992,,,,,,,,388.0000036256388,388.00656545814127,388.5037080831826,388.4907388333231,,,,,,,,,,,,,,,,,,,,,,,,,,,,,,,,,,,,,123456,1,Right,1,2026-01-23_12h24.07.992,EmoNback_Behavioral,,2025.1.1,None,2026-01-23 12h24.20.588612 -0600,
3,3,0,4,1,VM Stimuli/PL_001_92012.bmp,target,Target,Place,0-Back,None,0,VM Stimuli/PL_001_92012.bmp,4,0,4,0,0,3,3,3,,,,,,,,,388.5037080831826,,,,,,,,,,,,,,,,,,,,,,,,,,,,,,,,,,,,,,,,,,,,,,,,,,,,,,,,,,,,,,388.4914047503844,,388.4914281256497,388.4938144162297,388.4938527913764,388.49716129153967,388.5037080831826,388.5037080831826,388.5037080831826,388.5037080831826,390.49813645798713,390.49813645798713,390.49813645798713,390.49813645798713,390.4903826257214,None,0,1,NA,NA,NA,2026-01-23_12h24.07.992,12:30:51,1,1,4,4,VM Stimuli/PL_001_92012.bmp,Place,,,,,,,,,,,,,,,,,,,,,,,,,,,,,,,,,,,,,,,,,123456,1,Right,1,2026-01-23_12h24.07.992,EmoNback_Behavioral,,2025.1.1,None,2026-01-23 12h24.20.588612 -0600,
3,3,0,4,1,VM Stimuli/PL_001_92012.bmp,target,Target,Place,0-Back,None,0,VM Stimuli/PL_001_92012.bmp,4,0,4,0,0,3,3,3,,,,,,,,,,,,,,,,,,,,,,,,,,,,,,,,,,,,,,,,,,,,,,,,,,,,,,,,,,,,,,,,,,,,,,,,,,,,,,,,,,,,,,,,,,,,2026-01-23_12h24.07.992,,,,,,,,390.4908922081813,390.49813645798713,391.0051572499797,390.9905037507415,,,,,,,,,,,,,,,,,,,,,,,,,,,,,,,,,,,,,123456,1,Right,1,2026-01-23_12h24.07.992,EmoNback_Behavioral,,2025.1.1,None,2026-01-23 12h24.20.588612 -0600,
4,4,0,5,1,VM Stimuli/PL_004_92023.bmp,nonlure,nontarget,Place,0-Back,None,0,VM Stimuli/PL_001_92012.bmp,4,0,4,0,0,4,4,4,,,,,,,,,391.0051572499797,,,,,,,,,,,,,,,,,,,,,,,,,,,,,,,,,,,,,,,,,,,,,,,,,,,,,,,,,,,,,,390.99108829163015,,390.9911102503538,390.993012833409,390.9930523755029,390.9983347915113,391.0051572499797,391.0051572499797,391.0051572499797,391.0051572499797,392.9979416662827,392.9979416662827,392.9979416662827,392.9979416662827,392.9906527502462,None,0,2,NA,NA,NA,2026-01-23_12h24.07.992,12:30:53,1,1,4,5,VM Stimuli/PL_004_92023.bmp,Place,,,,,,,,,,,,,,,,,,,,,,,,,,,,,,,,,,,,,,,,,123456,1,Right,1,2026-01-23_12h24.07.992,EmoNback_Behavioral,,2025.1.1,None,2026-01-23 12h24.20.588612 -0600,
4,4,0,5,1,VM Stimuli/PL_004_92023.bmp,nonlure,nontarget,Place,0-Back,None,0,VM Stimuli/PL_001_92012.bmp,4,0,4,0,0,4,4,4,,,,,,,,,,,,,,,,,,,,,,,,,,,,,,,,,,,,,,,,,,,,,,,,,,,,,,,,,,,,,,,,,,,,,,,,,,,,,,,,,,,,,,,,,,,,2026-01-23_12h24.07.992,,,,,,,,392.99117308296263,392.9979416662827,393.5040758335963,393.4902286659926,,,,,,,,,,,,,,,,,,,,,,,,,,,,,,,,,,,,,123456,1,Right,1,2026-01-23_12h24.07.992,EmoNback_Behavioral,,2025.1.1,None,2026-01-23 12h24.20.588612 -0600,
5,5,0,6,1,VM Stimuli/PL_005_92024.bmp,nonlure,nontarget,Place,0-Back,None,0,VM Stimuli/PL_001_92012.bmp,4,0,4,0,0,5,5,5,,,,,,,,,393.5040758335963,,,,,,,,,,,,,,,,,,,,,,,,,,,,,,,,,,,,,,,,,,,,,,,,,,,,,,,,,,,,,,393.49081179127097,,393.4908327506855,393.49271700065583,393.49274975061417,393.49670991674066,393.5040758335963,393.5040758335963,393.5040758335963,393.5040758335963,395.4980999166146,395.4980999166146,395.4980999166146,395.4980999166146,395.49015479162335,None,0,2,NA,NA,NA,2026-01-23_12h24.07.992,12:30:56,1,1,4,6,VM Stimuli/PL_005_92024.bmp,Place,,,,,,,,,,,,,,,,,,,,,,,,,,,,,,,,,,,,,,,,,123456,1,Right,1,2026-01-23_12h24.07.992,EmoNback_Behavioral,,2025.1.1,None,2026-01-23 12h24.20.588612 -0600,
5,5,0,6,1,VM Stimuli/PL_005_92024.bmp,nonlure,nontarget,Place,0-Back,None,0,VM Stimuli/PL_001_92012.bmp,4,0,4,0,0,5,5,5,,,,,,,,,,,,,,,,,,,,,,,,,,,,,,,,,,,,,,,,,,,,,,,,,,,,,,,,,,,,,,,,,,,,,,,,,,,,,,,,,,,,,,,,,,,,2026-01-23_12h24.07.992,,,,,,,,395.4906615829095,395.4980999166146,396.002611416392,395.9901374159381,,,,,,,,,,,,,,,,,,,,,,,,,,,,,,,,,,,,,123456,1,Right,1,2026-01-23_12h24.07.992,EmoNback_Behavioral,,2025.1.1,None,2026-01-23 12h24.20.588612 -0600,
6,6,0,7,1,VM Stimuli/PL_001_92012.bmp,target,Target,Place,0-Back,None,0,VM Stimuli/PL_001_92012.bmp,4,0,4,0,0,6,6,6,,,,,,,,,396.002611416392,,,,,,,,,,,,,,,,,,,,,,,,,,,,,,,,,,,,,,,,,,,,,,,,,,,,,,,,,,,,,,395.99068837519735,,395.9907077504322,395.99243625067174,395.99246858339757,395.9949735002592,396.002611416392,396.002611416392,396.002611416392,396.002611416392,397.9968860410154,397.9968860410154,397.9968860410154,397.9968860410154,397.9900379581377,None,0,1,NA,NA,NA,2026-01-23_12h24.07.992,12:30:58,1,1,4,7,VM Stimuli/PL_001_92012.bmp,Place,,,,,,,,,,,,,,,,,,,,,,,,,,,,,,,,,,,,,,,,,123456,1,Right,1,2026-01-23_12h24.07.992,EmoNback_Behavioral,,2025.1.1,None,2026-01-23 12h24.20.588612 -0600,
6,6,0,7,1,VM Stimuli/PL_001_92012.bmp,target,Target,Place,0-Back,None,0,VM Stimuli/PL_001_92012.bmp,4,0,4,0,0,6,6,6,,,,,,,,,,,,,,,,,,,,,,,,,,,,,,,,,,,,,,,,,,,,,,,,,,,,,,,,,,,,,,,,,,,,,,,,,,,,,,,,,,,,,,,,,,,,2026-01-23_12h24.07.992,,,,,,,,397.990570041351,397.9968860410154,398.50336737558246,398.4899827502668,,,,,,,,,,,,,,,,,,,,,,,,,,,,,,,,,,,,,123456,1,Right,1,2026-01-23_12h24.07.992,EmoNback_Behavioral,,2025.1.1,None,2026-01-23 12h24.20.588612 -0600,
7,7,0,8,1,VM Stimuli/PL_002_92014.bmp,nonlure,nontarget,Place,0-Back,None,0,VM Stimuli/PL_001_92012.bmp,4,0,4,0,0,7,7,7,,,,,,,,,398.50336737558246,,,,,,,,,,,,,,,,,,,,,,,,,,,,,,,,,,,,,,,,,,,,,,,,,,,,,,,,,,,,,,398.4906262503937,,398.49065454117954,398.4923942508176,398.49242383334786,398.49648645799607,398.50336737558246,398.50336737558246,398.50336737558246,398.50336737558246,400.4968618750572,400.4968618750572,400.4968618750572,400.4968618750572,400.48984641674906,None,0,2,NA,NA,NA,2026-01-23_12h24.07.992,12:31:01,1,1,4,8,VM Stimuli/PL_002_92014.bmp,Place,,,,,,,,,,,,,,,,,,,,,,,,,,,,,,,,,,,,,,,,,123456,1,Right,1,2026-01-23_12h24.07.992,EmoNback_Behavioral,,2025.1.1,None,2026-01-23 12h24.20.588612 -0600,
7,7,0,8,1,VM Stimuli/PL_002_92014.bmp,nonlure,nontarget,Place,0-Back,None,0,VM Stimuli/PL_001_92012.bmp,4,0,4,0,0,7,7,7,,,,,,,,,,,,,,,,,,,,,,,,,,,,,,,,,,,,,,,,,,,,,,,,,,,,,,,,,,,,,,,,,,,,,,,,,,,,,,,,,,,,,,,,,,,,2026-01-23_12h24.07.992,,,,,,,,400.4902996663004,400.4968618750572,401.0042501660064,400.9899232080206,,,,,,,,,,,,,,,,,,,,,,,,,,,,,,,,,,,,,123456,1,Right,1,2026-01-23_12h24.07.992,EmoNback_Behavioral,,2025.1.1,None,2026-01-23 12h24.20.588612 -0600,
8,8,0,9,1,VM Stimuli/PL_004_92023.bmp,lure,nontarget,Place,0-Back,None,0,VM Stimuli/PL_001_92012.bmp,4,0,4,0,0,8,8,8,,,,,,,,,401.0042501660064,,,,,,,,,,,,,,,,,,,,,,,,,,,,,,,,,,,,,,,,,,,,,,,,,,,,,,,,,,,,,,400.9905480835587,,400.9905719999224,400.99247687496245,400.99250850081444,400.99654058367014,401.0042501660064,401.0042501660064,401.0042501660064,401.0042501660064,402.9964060001075,402.9964060001075,402.9964060001075,402.9964060001075,402.98976441659033,None,0,2,NA,NA,NA,2026-01-23_12h24.07.992,12:31:03,1,1,4,9,VM Stimuli/PL_004_92023.bmp,Place,,,,,,,,,,,,,,,,,,,,,,,,,,,,,,,,,,,,,,,,,123456,1,Right,1,2026-01-23_12h24.07.992,EmoNback_Behavioral,,2025.1.1,None,2026-01-23 12h24.20.588612 -0600,
8,8,0,9,1,VM Stimuli/PL_004_92023.bmp,lure,nontarget,Place,0-Back,None,0,VM Stimuli/PL_001_92012.bmp,4,0,4,0,0,8,8,8,,,,,,,,,,,,,,,,,,,,,,,,,,,,,,,,,,,,,,,,,,,,,,,,,,,,,,,,,,,,,,,,,,,,,,,,,,,,,,,,,,,,,,,,,,,,2026-01-23_12h24.07.992,,,,,,,,402.9902510410175,402.9964060001075,403.4965316662565,403.4821108337492,,,,,,,,,,,,,,,,,,,,,,,,,,,,,,,,,,,,,123456,1,Right,1,2026-01-23_12h24.07.992,EmoNback_Behavioral,,2025.1.1,None,2026-01-23 12h24.20.588612 -0600,
9,9,0,10,1,VM Stimuli/PL_006_92025.bmp,lure,nontarget,Place,0-Back,None,0,VM Stimuli/PL_001_92012.bmp,4,0,4,0,0,9,9,9,,,,,,,,,403.4965316662565,,,,,,,,,,,,,,,,,,,,,,,,,,,,,,,,,,,,,,,,,,,,,,,,,,,,,,,,,,,,,,403.48262258339673,,403.48264304175973,403.4841726664454,403.4841998750344,403.48740733321756,403.4965316662565,403.4965316662565,403.4965316662565,403.4965316662565,405.4895758330822,405.4895758330822,405.4895758330822,405.4895758330822,405.479435833171,None,0,2,NA,NA,NA,2026-01-23_12h24.07.992,12:31:06,1,1,4,10,VM Stimuli/PL_006_92025.bmp,Place,,,,,,,,,,,,,,,,,,,,,,,,,,,,,,,,,,,,,,,,,123456,1,Right,1,2026-01-23_12h24.07.992,EmoNback_Behavioral,,2025.1.1,None,2026-01-23 12h24.20.588612 -0600,
9,9,0,10,1,VM Stimuli/PL_006_92025.bmp,lure,nontarget,Place,0-Back,None,0,VM Stimuli/PL_001_92012.bmp,4,0,4,0,0,9,9,9,,,,,,,,,,,,,,,,,,,,,,,,,,,,,,,,,,,,,,,,,,,,,,,,,,,,,,,,,,,,,,,,,,,,,,,,,,,,,,,,,,,,,,,,,,,,2026-01-23_12h24.07.992,,,,,,,,405.4799517914653,405.4895758330822,405.9904875829816,405.9732792507857,,,,,,,,,,,,,,,,,,,,,,,,,,,,,,,,,,,,,123456,1,Right,1,2026-01-23_12h24.07.992,EmoNback_Behavioral,,2025.1.1,None,2026-01-23 12h24.20.588612 -0600,
0,0,0,1,1,VM Stimuli/AM228_NC.bmp,nonlure,nontarget,NeutFace,2-Back,None,0,,5,0,5,0,0,0,0,0,,,,,,,,,406.4831234999001,,,,,,,,,,,,,,,,,,,,,,,,,,,,,,,,,,,,,,,,,,,,,,,,,,,,,,,,,,,405.9859487079084,405.9904875829816,406.47328825015575,406.47884720843285,406.4831234999001,408.97310316655785,409.00300141610205,409.0030451249331,409.005791333504,409.0137162087485,409.0137162087485,409.0137162087485,409.0137162087485,411.0061063338071,411.0061063338071,411.0061063338071,411.0061063338071,410.9963795412332,None,0,2,NA,NA,NA,2026-01-23_12h24.07.992,12:31:11,1,1,5,1,VM Stimuli/AM228_NC.bmp,NeutFace,,,,,405.97555845882744,405.9756151251495,406.4831234999001,,,409.0137162087485,,,,,,,,,,,,,,,,,,,,,,,,,,,,,,,123456,1,Right,1,2026-01-23_12h24.07.992,EmoNback_Behavioral,,2025.1.1,None,2026-01-23 12h24.20.588612 -0600,
0,0,0,1,1,VM Stimuli/AM228_NC.bmp,nonlure,nontarget,NeutFace,2-Back,None,0,,5,0,5,0,0,0,0,0,,,,,,,,,,,,,,,,,,,,,,,,,,,,,,,,,,,,,,,,,,,,,,,,,,,,,,,,,,,,,,,,,,,,,,,,,,,,,,,,,,,,,,,,,,,,2026-01-23_12h24.07.992,,,,,,,,410.99681225046515,411.0061063338071,411.5220473334193,411.48973566666245,,,,,,,,,,,,,,,,,,,,,,,,,,,,,,,,,,,,,123456,1,Right,1,2026-01-23_12h24.07.992,EmoNback_Behavioral,,2025.1.1,None,2026-01-23 12h24.20.588612 -0600,
1,1,0,2,1,VM Stimuli/26M_NC.bmp,nonlure,nontarget,NeutFace,2-Back,None,0,,5,0,5,0,0,1,1,1,,,,,,,,,411.5220473334193,,,,,,,,,,,,,,,,,,,,,,,,,,,,,,,,,,,,,,,,,,,,,,,,,,,,,,,,,,,,,,411.49030387494713,,411.4903254164383,411.5116793755442,411.51172604132444,411.51493495795876,411.5220473334193,411.5220473334193,411.5220473334193,411.5220473334193,413.51475241594017,413.51475241594017,413.51475241594017,413.51475241594017,413.50652850046754,None,0,2,NA,NA,NA,2026-01-23_12h24.07.992,12:31:14,1,1,5,2,VM Stimuli/26M_NC.bmp,NeutFace,,,,,,,,,,,,,,,,,,,,,,,,,,,,,,,,,,,,,,,,,123456,1,Right,1,2026-01-23_12h24.07.992,EmoNback_Behavioral,,2025.1.1,None,2026-01-23 12h24.20.588612 -0600,
1,1,0,2,1,VM Stimuli/26M_NC.bmp,nonlure,nontarget,NeutFace,2-Back,None,0,,5,0,5,0,0,1,1,1,,,,,,,,,,,,,,,,,,,,,,,,,,,,,,,,,,,,,,,,,,,,,,,,,,,,,,,,,,,,,,,,,,,,,,,,,,,,,,,,,,,,,,,,,,,,2026-01-23_12h24.07.992,,,,,,,,413.50710524991155,413.51475241594017,414.033698416315,414.0065977508202,,,,,,,,,,,,,,,,,,,,,,,,,,,,,,,,,,,,,123456,1,Right,1,2026-01-23_12h24.07.992,EmoNback_Behavioral,,2025.1.1,None,2026-01-23 12h24.20.588612 -0600,
2,2,0,3,1,VM Stimuli/AM228_NC.bmp,target,Target,NeutFace,2-Back,None,0,,5,0,5,0,0,2,2,2,,,,,,,,,414.033698416315,,,,,,,,,,,,,,,,,,,,,,,,,,,,,,,,,,,,,,,,,,,,,,,,,,,,,,,,,,,,,,414.0072217499837,,414.00724529102445,414.0265133334324,414.026548541151,414.02830204181373,414.033698416315,414.033698416315,414.033698416315,414.033698416315,,,,,416.02734525036067,None,0,1,NA,NA,NA,2026-01-23_12h24.07.992,12:31:16,1,1,5,3,VM Stimuli/AM228_NC.bmp,NeutFace,,,,,,,,,,,,,,,,,,,,,,,,,,,,,,,,,,,,,,,,,123456,1,Right,1,2026-01-23_12h24.07.992,EmoNback_Behavioral,,2025.1.1,None,2026-01-23 12h24.20.588612 -0600,
2,2,0,3,1,VM Stimuli/AM228_NC.bmp,target,Target,NeutFace,2-Back,None,0,,5,0,5,0,0,2,2,2,,,,,,,,,,,,,,,,,,,,,,,,,,,,,,,,,,,,,,,,,,,,,,,,,,,,,,,,,,,,,,,,,,,,,,,,,,,,,,,,,,,,,,,,,,,,2026-01-23_12h24.07.992,,,,,,,,416.02779025025666,416.03946145810187,416.55687812529504,416.522995416075,,,,,,,,,,,,,,,,,,,,,,,,,,,,,,,,,,,,,123456,1,Right,1,2026-01-23_12h24.07.992,EmoNback_Behavioral,,2025.1.1,None,2026-01-23 12h24.20.588612 -0600,
3,3,0,4,1,VM Stimuli/LF227_NC.bmp,nonlure,nontarget,NeutFace,2-Back,None,0,,5,0,5,0,0,3,3,3,,,,,,,,,416.55687812529504,,,,,,,,,,,,,,,,,,,,,,,,,,,,,,,,,,,,,,,,,,,,,,,,,,,,,,,,,,,,,,416.5237099584192,,416.52374870795757,416.54733820818365,416.5473790410906,416.550441166386,416.55687812529504,416.55687812529504,416.55687812529504,416.55687812529504,418.5463441256434,418.5463441256434,418.5463441256434,418.5463441256434,418.5395100004971,None,0,2,NA,NA,NA,2026-01-23_12h24.07.992,12:31:19,1,1,5,4,VM Stimuli/LF227_NC.bmp,NeutFace,,,,,,,,,,,,,,,,,,,,,,,,,,,,,,,,,,,,,,,,,123456,1,Right,1,2026-01-23_12h24.07.992,EmoNback_Behavioral,,2025.1.1,None,2026-01-23 12h24.20.588612 -0600,
3,3,0,4,1,VM Stimuli/LF227_NC.bmp,nonlure,nontarget,NeutFace,2-Back,None,0,,5,0,5,0,0,3,3,3,,,,,,,,,,,,,,,,,,,,,,,,,,,,,,,,,,,,,,,,,,,,,,,,,,,,,,,,,,,,,,,,,,,,,,,,,,,,,,,,,,,,,,,,,,,,2026-01-23_12h24.07.992,,,,,,,,418.54004475008696,418.5463441256434,419.0593733750284,419.0292333336547,,,,,,,,,,,,,,,,,,,,,,,,,,,,,,,,,,,,,123456,1,Right,1,2026-01-23_12h24.07.992,EmoNback_Behavioral,,2025.1.1,None,2026-01-23 12h24.20.588612 -0600,
4,4,0,5,1,VM Stimuli/26M_NC.bmp,lure,nontarget,NeutFace,2-Back,None,0,,5,0,5,0,0,4,4,4,,,,,,,,,419.0593733750284,,,,,,,,,,,,,,,,,,,,,,,,,,,,,,,,,,,,,,,,,,,,,,,,,,,,,,,,,,,,,,419.02980641648173,,419.0298287505284,419.0500210830942,419.0500549999997,419.0534891663119,419.0593733750284,419.0593733750284,419.0593733750284,419.0593733750284,421.05635375063866,421.05635375063866,421.05635375063866,421.05635375063866,421.0481160832569,None,0,2,NA,NA,NA,2026-01-23_12h24.07.992,12:31:21,1,1,5,5,VM Stimuli/26M_NC.bmp,NeutFace,,,,,,,,,,,,,,,,,,,,,,,,,,,,,,,,,,,,,,,,,123456,1,Right,1,2026-01-23_12h24.07.992,EmoNback_Behavioral,,2025.1.1,None,2026-01-23 12h24.20.588612 -0600,
4,4,0,5,1,VM Stimuli/26M_NC.bmp,lure,nontarget,NeutFace,2-Back,None,0,,5,0,5,0,0,4,4,4,,,,,,,,,,,,,,,,,,,,,,,,,,,,,,,,,,,,,,,,,,,,,,,,,,,,,,,,,,,,,,,,,,,,,,,,,,,,,,,,,,,,,,,,,,,,2026-01-23_12h24.07.992,,,,,,,,421.0485714999959,421.05635375063866,421.565641916357,421.5392454583198,,,,,,,,,,,,,,,,,,,,,,,,,,,,,,,,,,,,,123456,1,Right,1,2026-01-23_12h24.07.992,EmoNback_Behavioral,,2025.1.1,None,2026-01-23 12h24.20.588612 -0600,
5,5,0,6,1,VM Stimuli/LF227_NC.bmp,target,Target,NeutFace,2-Back,None,0,,5,0,5,0,0,5,5,5,,,,,,,,,421.565641916357,,,,,,,,,,,,,,,,,,,,,,,,,,,,,,,,,,,,,,,,,,,,,,,,,,,,,,,,,,,,,,421.53974220808595,,421.5397653756663,421.5578027917072,421.5578378336504,421.5594891253859,421.565641916357,421.565641916357,421.565641916357,421.565641916357,423.56190637499094,423.56190637499094,423.56190637499094,423.56190637499094,423.55648208316416,None,0,1,NA,NA,NA,2026-01-23_12h24.07.992,12:31:24,1,1,5,6,VM Stimuli/LF227_NC.bmp,NeutFace,,,,,,,,,,,,,,,,,,,,,,,,,,,,,,,,,,,,,,,,,123456,1,Right,1,2026-01-23_12h24.07.992,EmoNback_Behavioral,,2025.1.1,None,2026-01-23 12h24.20.588612 -0600,
5,5,0,6,1,VM Stimuli/LF227_NC.bmp,target,Target,NeutFace,2-Back,None,0,,5,0,5,0,0,5,5,5,,,,,,,,,,,,,,,,,,,,,,,,,,,,,,,,,,,,,,,,,,,,,,,,,,,,,,,,,,,,,,,,,,,,,,,,,,,,,,,,,,,,,,,,,,,,2026-01-23_12h24.07.992,,,,,,,,423.55704995803535,423.56190637499094,424.0751697085798,424.049066583626,,,,,,,,,,,,,,,,,,,,,,,,,,,,,,,,,,,,,123456,1,Right,1,2026-01-23_12h24.07.992,EmoNback_Behavioral,,2025.1.1,None,2026-01-23 12h24.20.588612 -0600,
6,6,0,7,1,VM Stimuli/AF206_NC.bmp,nonlure,nontarget,NeutFace,2-Back,None,0,,5,0,5,0,0,6,6,6,,,,,,,,,424.0751697085798,,,,,,,,,,,,,,,,,,,,,,,,,,,,,,,,,,,,,,,,,,,,,,,,,,,,,,,,,,,,,,424.0496146250516,,424.0496342917904,424.06498529110104,424.06501650065184,424.06820712517947,424.0751697085798,424.0751697085798,424.0751697085798,424.0751697085798,426.0724180834368,426.0724180834368,426.0724180834368,426.0724180834368,426.06303258333355,None,0,2,NA,NA,NA,2026-01-23_12h24.07.992,12:31:26,1,1,5,7,VM Stimuli/AF206_NC.bmp,NeutFace,,,,,,,,,,,,,,,,,,,,,,,,,,,,,,,,,,,,,,,,,123456,1,Right,1,2026-01-23_12h24.07.992,EmoNback_Behavioral,,2025.1.1,None,2026-01-23 12h24.20.588612 -0600,
6,6,0,7,1,VM Stimuli/AF206_NC.bmp,nonlure,nontarget,NeutFace,2-Back,None,0,,5,0,5,0,0,6,6,6,,,,,,,,,,,,,,,,,,,,,,,,,,,,,,,,,,,,,,,,,,,,,,,,,,,,,,,,,,,,,,,,,,,,,,,,,,,,,,,,,,,,,,,,,,,,2026-01-23_12h24.07.992,,,,,,,,426.0634632501751,426.0724180834368,426.5884425416589,426.556367916055,,,,,,,,,,,,,,,,,,,,,,,,,,,,,,,,,,,,,123456,1,Right,1,2026-01-23_12h24.07.992,EmoNback_Behavioral,,2025.1.1,None,2026-01-23 12h24.20.588612 -0600,
7,7,0,8,1,VM Stimuli/AF206_NC.bmp,lure,nontarget,NeutFace,2-Back,None,0,,5,0,5,0,0,7,7,7,,,,,,,,,426.5884425416589,,,,,,,,,,,,,,,,,,,,,,,,,,,,,,,,,,,,,,,,,,,,,,,,,,,,,,,,,,,,,,426.5569377085194,,426.5569594586268,426.580975625664,426.58100812509656,426.5826195832342,426.5884425416589,426.5884425416589,426.5884425416589,426.5884425416589,428.57930850051343,428.57930850051343,428.57930850051343,428.57930850051343,428.57250733301044,None,0,2,NA,NA,NA,2026-01-23_12h24.07.992,12:31:29,1,1,5,8,VM Stimuli/AF206_NC.bmp,NeutFace,,,,,,,,,,,,,,,,,,,,,,,,,,,,,,,,,,,,,,,,,123456,1,Right,1,2026-01-23_12h24.07.992,EmoNback_Behavioral,,2025.1.1,None,2026-01-23 12h24.20.588612 -0600,
7,7,0,8,1,VM Stimuli/AF206_NC.bmp,lure,nontarget,NeutFace,2-Back,None,0,,5,0,5,0,0,7,7,7,,,,,,,,,,,,,,,,,,,,,,,,,,,,,,,,,,,,,,,,,,,,,,,,,,,,,,,,,,,,,,,,,,,,,,,,,,,,,,,,,,,,,,,,,,,,2026-01-23_12h24.07.992,,,,,,,,428.57301504164934,428.57930850051343,429.0912603335455,429.06460120808333,,,,,,,,,,,,,,,,,,,,,,,,,,,,,,,,,,,,,123456,1,Right,1,2026-01-23_12h24.07.992,EmoNback_Behavioral,,2025.1.1,None,2026-01-23 12h24.20.588612 -0600,
8,8,0,9,1,VM Stimuli/BM03_NC.bmp,nonlure,nontarget,NeutFace,2-Back,None,0,,5,0,5,0,0,8,8,8,,,,,,,,,429.0912603335455,,,,,,,,,,,,,,,,,,,,,,,,,,,,,,,,,,,,,,,,,,,,,,,,,,,,,,,,,,,,,,429.06510050036013,,429.0651221256703,429.0816718749702,429.08170387521386,429.0853549167514,429.0912603335455,429.0912603335455,429.0912603335455,429.0912603335455,431.08910558372736,431.08910558372736,431.08910558372736,431.08910558372736,431.0774719165638,None,0,2,NA,NA,NA,2026-01-23_12h24.07.992,12:31:31,1,1,5,9,VM Stimuli/BM03_NC.bmp,NeutFace,,,,,,,,,,,,,,,,,,,,,,,,,,,,,,,,,,,,,,,,,123456,1,Right,1,2026-01-23_12h24.07.992,EmoNback_Behavioral,,2025.1.1,None,2026-01-23 12h24.20.588612 -0600,
8,8,0,9,1,VM Stimuli/BM03_NC.bmp,nonlure,nontarget,NeutFace,2-Back,None,0,,5,0,5,0,0,8,8,8,,,,,,,,,,,,,,,,,,,,,,,,,,,,,,,,,,,,,,,,,,,,,,,,,,,,,,,,,,,,,,,,,,,,,,,,,,,,,,,,,,,,,,,,,,,,2026-01-23_12h24.07.992,,,,,,,,431.0778522081673,431.08910558372736,431.59996316675097,431.5724643757567,,,,,,,,,,,,,,,,,,,,,,,,,,,,,,,,,,,,,123456,1,Right,1,2026-01-23_12h24.07.992,EmoNback_Behavioral,,2025.1.1,None,2026-01-23 12h24.20.588612 -0600,
9,9,0,10,1,VM Stimuli/WF012_NC.bmp,nonlure,nontarget,NeutFace,2-Back,None,0,,5,0,5,0,0,9,9,9,,,,,,,,,431.59996316675097,,,,,,,,,,,,,,,,,,,,,,,,,,,,,,,,,,,,,,,,,,,,,,,,,,,,,,,,,,,,,,431.5729868756607,,431.57300650049,431.58752854168415,431.5875658756122,431.59254966676235,431.59996316675097,431.59996316675097,431.59996316675097,431.59996316675097,,,,,433.58905920851976,None,0,2,NA,NA,NA,2026-01-23_12h24.07.992,12:31:34,1,1,5,10,VM Stimuli/WF012_NC.bmp,NeutFace,,,,,,,,,,,,,,,,,,,,,,,,,,,,,,,,,,,,,,,,,123456,1,Right,1,2026-01-23_12h24.07.992,EmoNback_Behavioral,,2025.1.1,None,2026-01-23 12h24.20.588612 -0600,
9,9,0,10,1,VM Stimuli/WF012_NC.bmp,nonlure,nontarget,NeutFace,2-Back,None,0,,5,0,5,0,0,9,9,9,,,,,,,,,,,,,,,,,,,,,,,,,,,,,,,,,,,,,,,,,,,,,,,,,,,,,,,,,,,,,,,,,,,,,,,,,,,,,,,,,,,,,,,,,,,,2026-01-23_12h24.07.992,,,,,,,,433.58979016635567,433.5972221661359,,434.0890280418098,,,,,,,,,,,,,,,,,,,,,,,,,,,,,,,,,,,,,123456,1,Right,1,2026-01-23_12h24.07.992,EmoNback_Behavioral,,2025.1.1,None,2026-01-23 12h24.20.588612 -0600,
0,0,0,1,1,VM Stimuli/BF003_FO.bmp,nonlure,nontarget,NegFace,0-Back,None,0,VM Stimuli/39M_FO.bmp,6,0,6,0,0,0,0,0,,,,,,,,,434.6164494585246,,,,,,,,,,,,,,,,,,,,,,,,,,,,,,,,,,,,,,,,,,,,,,,,,,,,,,,,,,,434.1029690830037,434.1071452079341,434.5976583333686,434.6030781250447,,434.6031040837988,434.6110599162057,437.08933995850384,437.09346645791084,437.1007367502898,437.1007367502898,437.1007367502898,437.1007367502898,439.1034872084856,439.1034872084856,439.1034872084856,439.1034872084856,439.09052345808595,None,0,2,NA,NA,NA,2026-01-23_12h24.07.992,12:31:39,1,1,6,1,VM Stimuli/BF003_FO.bmp,NegFace,,,,,434.0912783751264,434.091344833374,434.6164494585246,434.6164494585246,434.6164494585246,,,,,,,,,,,,,,,,,,,,,,,,,,,,,,,,123456,1,Right,1,2026-01-23_12h24.07.992,EmoNback_Behavioral,,2025.1.1,None,2026-01-23 12h24.20.588612 -0600,
0,0,0,1,1,VM Stimuli/BF003_FO.bmp,nonlure,nontarget,NegFace,0-Back,None,0,VM Stimuli/39M_FO.bmp,6,0,6,0,0,0,0,0,,,,,,,,,,,,,,,,,,,,,,,,,,,,,,,,,,,,,,,,,,,,,,,,,,,,,,,,,,,,,,,,,,,,,,,,,,,,,,,,,,,,,,,,,,,,2026-01-23_12h24.07.992,,,,,,,,439.09232033323497,439.1034872084856,439.6040980834514,439.5890248334035,,,,,,,,,,,,,,,,,,,,,,,,,,,,,,,,,,,,,123456,1,Right,1,2026-01-23_12h24.07.992,EmoNback_Behavioral,,2025.1.1,None,2026-01-23 12h24.20.588612 -0600,
1,1,0,2,1,VM Stimuli/HM05_FO.bmp,nonlure,nontarget,NegFace,0-Back,None,0,VM Stimuli/39M_FO.bmp,6,0,6,0,0,1,1,1,,,,,,,,,439.6040980834514,,,,,,,,,,,,,,,,,,,,,,,,,,,,,,,,,,,,,,,,,,,,,,,,,,,,,,,,,,,,,,439.5898400414735,,439.5898626251146,439.593679250218,439.59372341632843,439.59753737505525,439.6040980834514,439.6040980834514,439.6040980834514,439.6040980834514,441.5968685410917,441.5968685410917,441.5968685410917,441.5968685410917,441.58919370826334,None,0,2,NA,NA,NA,2026-01-23_12h24.07.992,12:31:42,1,1,6,2,VM Stimuli/HM05_FO.bmp,NegFace,,,,,,,,,,,,,,,,,,,,,,,,,,,,,,,,,,,,,,,,,123456,1,Right,1,2026-01-23_12h24.07.992,EmoNback_Behavioral,,2025.1.1,None,2026-01-23 12h24.20.588612 -0600,
1,1,0,2,1,VM Stimuli/HM05_FO.bmp,nonlure,nontarget,NegFace,0-Back,None,0,VM Stimuli/39M_FO.bmp,6,0,6,0,0,1,1,1,,,,,,,,,,,,,,,,,,,,,,,,,,,,,,,,,,,,,,,,,,,,,,,,,,,,,,,,,,,,,,,,,,,,,,,,,,,,,,,,,,,,,,,,,,,,2026-01-23_12h24.07.992,,,,,,,,441.5897245416418,441.5968685410917,442.09517808351666,442.0802635829896,,,,,,,,,,,,,,,,,,,,,,,,,,,,,,,,,,,,,123456,1,Right,1,2026-01-23_12h24.07.992,EmoNback_Behavioral,,2025.1.1,None,2026-01-23 12h24.20.588612 -0600,
2,2,0,3,1,VM Stimuli/HM05_FO.bmp,lure,nontarget,NegFace,0-Back,None,0,VM Stimuli/39M_FO.bmp,6,0,6,0,0,2,2,2,,,,,,,,,442.09517808351666,,,,,,,,,,,,,,,,,,,,,,,,,,,,,,,,,,,,,,,,,,,,,,,,,,,,,,,,,,,,,,442.08091033343226,,442.08093125000596,442.0833760416135,442.0834135003388,442.0853345831856,442.09517808351666,442.09517808351666,442.09517808351666,442.09517808351666,444.0888061253354,444.0888061253354,444.0888061253354,444.0888061253354,444.08043483365327,None,0,2,NA,NA,NA,2026-01-23_12h24.07.992,12:31:44,1,1,6,3,VM Stimuli/HM05_FO.bmp,NegFace,,,,,,,,,,,,,,,,,,,,,,,,,,,,,,,,,,,,,,,,,123456,1,Right,1,2026-01-23_12h24.07.992,EmoNback_Behavioral,,2025.1.1,None,2026-01-23 12h24.20.588612 -0600,
2,2,0,3,1,VM Stimuli/HM05_FO.bmp,lure,nontarget,NegFace,0-Back,None,0,VM Stimuli/39M_FO.bmp,6,0,6,0,0,2,2,2,,,,,,,,,,,,,,,,,,,,,,,,,,,,,,,,,,,,,,,,,,,,,,,,,,,,,,,,,,,,,,,,,,,,,,,,,,,,,,,,,,,,,,,,,,,,2026-01-23_12h24.07.992,,,,,,,,444.08088704105467,444.0888061253354,444.5860352916643,444.5727583337575,,,,,,,,,,,,,,,,,,,,,,,,,,,,,,,,,,,,,123456,1,Right,1,2026-01-23_12h24.07.992,EmoNback_Behavioral,,2025.1.1,None,2026-01-23 12h24.20.588612 -0600,
3,3,0,4,1,VM Stimuli/10F_FO.bmp,nonlure,nontarget,NegFace,0-Back,None,0,VM Stimuli/39M_FO.bmp,6,0,6,0,0,3,3,3,,,,,,,,,444.5860352916643,,,,,,,,,,,,,,,,,,,,,,,,,,,,,,,,,,,,,,,,,,,,,,,,,,,,,,,,,,,,,,444.57341541629285,,444.5734374579042,444.57587787508965,444.5759148336947,444.5795407081023,444.5860352916643,444.5860352916643,444.5860352916643,444.5860352916643,,,,,446.63466216623783,None,0,2,NA,NA,NA,2026-01-23_12h24.07.992,12:31:47,1,1,6,4,VM Stimuli/10F_FO.bmp,NegFace,,,,,,,,,,,,,,,,,,,,,,,,,,,,,,,,,,,,,,,,,123456,1,Right,1,2026-01-23_12h24.07.992,EmoNback_Behavioral,,2025.1.1,None,2026-01-23 12h24.20.588612 -0600,
3,3,0,4,1,VM Stimuli/10F_FO.bmp,nonlure,nontarget,NegFace,0-Back,None,0,VM Stimuli/39M_FO.bmp,6,0,6,0,0,3,3,3,,,,,,,,,,,,,,,,,,,,,,,,,,,,,,,,,,,,,,,,,,,,,,,,,,,,,,,,,,,,,,,,,,,,,,,,,,,,,,,,,,,,,,,,,,,,2026-01-23_12h24.07.992,,,,,,,,446.635600999929,446.67773379106075,,447.0787751255557,,,,,,,,,,,,,,,,,,,,,,,,,,,,,,,,,,,,,123456,1,Right,1,2026-01-23_12h24.07.992,EmoNback_Behavioral,,2025.1.1,None,2026-01-23 12h24.20.588612 -0600,
4,4,0,5,1,VM Stimuli/BF09_FO.bmp,nonlure,nontarget,NegFace,0-Back,None,0,VM Stimuli/39M_FO.bmp,6,0,6,0,0,4,4,4,,,,,,,,,447.095411375165,,,,,,,,,,,,,,,,,,,,,,,,,,,,,,,,,,,,,,,,,,,,,,,,,,,,,,,,,,,,,,447.07936841621995,,447.0793936662376,447.0813873754814,447.0814237501472,447.0840808330104,447.095411375165,447.095411375165,447.095411375165,447.095411375165,449.08852016646415,449.08852016646415,449.08852016646415,449.08852016646415,449.0801758337766,None,0,2,NA,NA,NA,2026-01-23_12h24.07.992,12:31:49,1,1,6,5,VM Stimuli/BF09_FO.bmp,NegFace,,,,,,,,,,,,,,,,,,,,,,,,,,,,,,,,,,,,,,,,,123456,1,Right,1,2026-01-23_12h24.07.992,EmoNback_Behavioral,,2025.1.1,None,2026-01-23 12h24.20.588612 -0600,
4,4,0,5,1,VM Stimuli/BF09_FO.bmp,nonlure,nontarget,NegFace,0-Back,None,0,VM Stimuli/39M_FO.bmp,6,0,6,0,0,4,4,4,,,,,,,,,,,,,,,,,,,,,,,,,,,,,,,,,,,,,,,,,,,,,,,,,,,,,,,,,,,,,,,,,,,,,,,,,,,,,,,,,,,,,,,,,,,,2026-01-23_12h24.07.992,,,,,,,,449.0806848332286,449.08852016646415,449.5853179162368,449.5722242081538,,,,,,,,,,,,,,,,,,,,,,,,,,,,,,,,,,,,,123456,1,Right,1,2026-01-23_12h24.07.992,EmoNback_Behavioral,,2025.1.1,None,2026-01-23 12h24.20.588612 -0600,
5,5,0,6,1,VM Stimuli/28M_FO.bmp,nonlure,nontarget,NegFace,0-Back,None,0,VM Stimuli/39M_FO.bmp,6,0,6,0,0,5,5,5,,,,,,,,,449.5853179162368,,,,,,,,,,,,,,,,,,,,,,,,,,,,,,,,,,,,,,,,,,,,,,,,,,,,,,,,,,,,,,449.5729667916894,,449.57298879139125,449.57548387534916,449.5755287911743,449.57949754130095,449.5853179162368,449.5853179162368,449.5853179162368,449.5853179162368,451.58031445834786,451.58031445834786,451.58031445834786,451.58031445834786,451.57218550052494,None,0,2,NA,NA,NA,2026-01-23_12h24.07.992,12:31:52,1,1,6,6,VM Stimuli/28M_FO.bmp,NegFace,,,,,,,,,,,,,,,,,,,,,,,,,,,,,,,,,,,,,,,,,123456,1,Right,1,2026-01-23_12h24.07.992,EmoNback_Behavioral,,2025.1.1,None,2026-01-23 12h24.20.588612 -0600,
5,5,0,6,1,VM Stimuli/28M_FO.bmp,nonlure,nontarget,NegFace,0-Back,None,0,VM Stimuli/39M_FO.bmp,6,0,6,0,0,5,5,5,,,,,,,,,,,,,,,,,,,,,,,,,,,,,,,,,,,,,,,,,,,,,,,,,,,,,,,,,,,,,,,,,,,,,,,,,,,,,,,,,,,,,,,,,,,,2026-01-23_12h24.07.992,,,,,,,,451.57281241659075,451.58031445834786,452.0849647913128,452.07219145819545,,,,,,,,,,,,,,,,,,,,,,,,,,,,,,,,,,,,,123456,1,Right,1,2026-01-23_12h24.07.992,EmoNback_Behavioral,,2025.1.1,None,2026-01-23 12h24.20.588612 -0600,
6,6,0,7,1,VM Stimuli/BF003_FO.bmp,lure,nontarget,NegFace,0-Back,None,0,VM Stimuli/39M_FO.bmp,6,0,6,0,0,6,6,6,,,,,,,,,452.0849647913128,,,,,,,,,,,,,,,,,,,,,,,,,,,,,,,,,,,,,,,,,,,,,,,,,,,,,,,,,,,,,,452.07289429102093,,452.0729314163327,452.0752448756248,452.075285625644,452.07908216677606,452.0849647913128,452.0849647913128,452.0849647913128,452.0849647913128,454.07945025060326,454.07945025060326,454.07945025060326,454.07945025060326,454.0719192083925,None,0,2,NA,NA,NA,2026-01-23_12h24.07.992,12:31:54,1,1,6,7,VM Stimuli/BF003_FO.bmp,NegFace,,,,,,,,,,,,,,,,,,,,,,,,,,,,,,,,,,,,,,,,,123456,1,Right,1,2026-01-23_12h24.07.992,EmoNback_Behavioral,,2025.1.1,None,2026-01-23 12h24.20.588612 -0600,
6,6,0,7,1,VM Stimuli/BF003_FO.bmp,lure,nontarget,NegFace,0-Back,None,0,VM Stimuli/39M_FO.bmp,6,0,6,0,0,6,6,6,,,,,,,,,,,,,,,,,,,,,,,,,,,,,,,,,,,,,,,,,,,,,,,,,,,,,,,,,,,,,,,,,,,,,,,,,,,,,,,,,,,,,,,,,,,,2026-01-23_12h24.07.992,,,,,,,,454.07248475030065,454.07945025060326,454.58349762577564,454.57194745820016,,,,,,,,,,,,,,,,,,,,,,,,,,,,,,,,,,,,,123456,1,Right,1,2026-01-23_12h24.07.992,EmoNback_Behavioral,,2025.1.1,None,2026-01-23 12h24.20.588612 -0600,
7,7,0,8,1,VM Stimuli/39M_FO.bmp,target,Target,NegFace,0-Back,None,0,VM Stimuli/39M_FO.bmp,6,0,6,0,0,7,7,7,,,,,,,,,454.58349762577564,,,,,,,,,,,,,,,,,,,,,,,,,,,,,,,,,,,,,,,,,,,,,,,,,,,,,,,,,,,,,,454.5725138755515,,454.5725343329832,454.57489508297294,454.57493425067514,454.5772358337417,454.58349762577564,454.58349762577564,454.58349762577564,454.58349762577564,456.58132316637784,456.58132316637784,456.58132316637784,456.58132316637784,456.5719103338197,None,0,1,NA,NA,NA,2026-01-23_12h24.07.992,12:31:57,1,1,6,8,VM Stimuli/39M_FO.bmp,NegFace,,,,,,,,,,,,,,,,,,,,,,,,,,,,,,,,,,,,,,,,,123456,1,Right,1,2026-01-23_12h24.07.992,EmoNback_Behavioral,,2025.1.1,None,2026-01-23 12h24.20.588612 -0600,
7,7,0,8,1,VM Stimuli/39M_FO.bmp,target,Target,NegFace,0-Back,None,0,VM Stimuli/39M_FO.bmp,6,0,6,0,0,7,7,7,,,,,,,,,,,,,,,,,,,,,,,,,,,,,,,,,,,,,,,,,,,,,,,,,,,,,,,,,,,,,,,,,,,,,,,,,,,,,,,,,,,,,,,,,,,,2026-01-23_12h24.07.992,,,,,,,,456.57240537554026,456.58132316637784,457.08442833367735,457.0719797499478,,,,,,,,,,,,,,,,,,,,,,,,,,,,,,,,,,,,,123456,1,Right,1,2026-01-23_12h24.07.992,EmoNback_Behavioral,,2025.1.1,None,2026-01-23 12h24.20.588612 -0600,
8,8,0,9,1,VM Stimuli/10F_FO.bmp,lure,nontarget,NegFace,0-Back,None,0,VM Stimuli/39M_FO.bmp,6,0,6,0,0,8,8,8,,,,,,,,,457.08442833367735,,,,,,,,,,,,,,,,,,,,,,,,,,,,,,,,,,,,,,,,,,,,,,,,,,,,,,,,,,,,,,457.0725251659751,,457.0725440001115,457.07419641595334,457.0742360409349,457.07822970859706,457.08442833367735,457.08442833367735,457.08442833367735,457.08442833367735,459.0791839165613,459.0791839165613,459.0791839165613,459.0791839165613,459.07191979140043,None,0,2,NA,NA,NA,2026-01-23_12h24.07.992,12:31:59,1,1,6,9,VM Stimuli/10F_FO.bmp,NegFace,,,,,,,,,,,,,,,,,,,,,,,,,,,,,,,,,,,,,,,,,123456,1,Right,1,2026-01-23_12h24.07.992,EmoNback_Behavioral,,2025.1.1,None,2026-01-23 12h24.20.588612 -0600,
8,8,0,9,1,VM Stimuli/10F_FO.bmp,lure,nontarget,NegFace,0-Back,None,0,VM Stimuli/39M_FO.bmp,6,0,6,0,0,8,8,8,,,,,,,,,,,,,,,,,,,,,,,,,,,,,,,,,,,,,,,,,,,,,,,,,,,,,,,,,,,,,,,,,,,,,,,,,,,,,,,,,,,,,,,,,,,,2026-01-23_12h24.07.992,,,,,,,,459.0724506666884,459.0791839165613,459.5829735416919,459.57203345838934,,,,,,,,,,,,,,,,,,,,,,,,,,,,,,,,,,,,,123456,1,Right,1,2026-01-23_12h24.07.992,EmoNback_Behavioral,,2025.1.1,None,2026-01-23 12h24.20.588612 -0600,
9,9,0,10,1,VM Stimuli/39M_FO.bmp,target,Target,NegFace,0-Back,None,0,VM Stimuli/39M_FO.bmp,6,0,6,0,0,9,9,9,,,,,,,,,459.5829735416919,,,,,,,,,,,,,,,,,,,,,,,,,,,,,,,,,,,,,,,,,,,,,,,,,,,,,,,,,,,,,,459.57255333382636,,459.57257162500173,459.57413741666824,459.5741733331233,459.5761292502284,459.5829735416919,459.5829735416919,459.5829735416919,459.5829735416919,461.57894429098815,461.57894429098815,461.57894429098815,461.57894429098815,461.5718668755144,None,0,1,NA,NA,NA,2026-01-23_12h24.07.992,12:32:02,1,1,6,10,VM Stimuli/39M_FO.bmp,NegFace,,,,,,,,,,,,,,,,,,,,,,,,,,,,,,,,,,,,,,,,,123456,1,Right,1,2026-01-23_12h24.07.992,EmoNback_Behavioral,,2025.1.1,None,2026-01-23 12h24.20.588612 -0600,
9,9,0,10,1,VM Stimuli/39M_FO.bmp,target,Target,NegFace,0-Back,None,0,VM Stimuli/39M_FO.bmp,6,0,6,0,0,9,9,9,,,,,,,,,,,,,,,,,,,,,,,,,,,,,,,,,,,,,,,,,,,,,,,,,,,,,,,,,,,,,,,,,,,,,,,,,,,,,,,,,,,,,,,,,,,,2026-01-23_12h24.07.992,,,,,,,,461.5724035417661,461.57894429098815,462.091867916286,462.0718912081793,,,,,,,,,,,,,,,,,,,,,,,,,,,,,,,,,,,,,123456,1,Right,1,2026-01-23_12h24.07.992,EmoNback_Behavioral,,2025.1.1,None,2026-01-23 12h24.20.588612 -0600,
0,0,0,1,1,VM Stimuli/PL_007_92026.bmp,nonlure,nontarget,Place,2-Back,None,0,,7,0,7,0,0,0,0,0,,,,,,,,,462.5879435837269,,,,,,,,,,,,,,,,,,,,,,,,,,,,,,,,,,,,,,,,,,,,,,,,,,,,,,,,,,,462.08523700013757,462.091867916286,462.5780451251194,462.5830454165116,462.5879435837269,465.07179687544703,465.120074625127,465.1201167088002,465.12392970826477,465.1305314162746,465.1305314162746,465.1305314162746,465.1305314162746,,,,,467.12183320801705,None,0,2,NA,NA,NA,2026-01-23_12h24.07.992,12:32:07,1,1,7,1,VM Stimuli/PL_007_92026.bmp,Place,,,,,462.07414362579584,462.07419595867395,462.5879435837269,,,465.1305314162746,,,,,,,,,,,,,,,,,,,,,,,,,,,,,,,123456,1,Right,1,2026-01-23_12h24.07.992,EmoNback_Behavioral,,2025.1.1,None,2026-01-23 12h24.20.588612 -0600,
0,0,0,1,1,VM Stimuli/PL_007_92026.bmp,nonlure,nontarget,Place,2-Back,None,0,,7,0,7,0,0,0,0,0,,,,,,,,,,,,,,,,,,,,,,,,,,,,,,,,,,,,,,,,,,,,,,,,,,,,,,,,,,,,,,,,,,,,,,,,,,,,,,,,,,,,,,,,,,,,2026-01-23_12h24.07.992,,,,,,,,467.12248841673136,467.1291664587334,467.64240704104304,467.61243400070816,,,,,,,,,,,,,,,,,,,,,,,,,,,,,,,,,,,,,123456,1,Right,1,2026-01-23_12h24.07.992,EmoNback_Behavioral,,2025.1.1,None,2026-01-23 12h24.20.588612 -0600,
1,1,0,2,1,VM Stimuli/PL_007_92026.bmp,lure,nontarget,Place,2-Back,None,0,,7,0,7,0,0,1,1,1,,,,,,,,,467.64240704104304,,,,,,,,,,,,,,,,,,,,,,,,,,,,,,,,,,,,,,,,,,,,,,,,,,,,,,,,,,,,,,467.61288950033486,,467.6129096252844,467.6325346659869,467.63256775029004,467.6343280002475,467.64240704104304,467.64240704104304,467.64240704104304,467.64240704104304,469.63810412492603,469.63810412492603,469.63810412492603,469.63810412492603,469.62825325038284,None,0,2,NA,NA,NA,2026-01-23_12h24.07.992,12:32:10,1,1,7,2,VM Stimuli/PL_007_92026.bmp,Place,,,,,,,,,,,,,,,,,,,,,,,,,,,,,,,,,,,,,,,,,123456,1,Right,1,2026-01-23_12h24.07.992,EmoNback_Behavioral,,2025.1.1,None,2026-01-23 12h24.20.588612 -0600,
1,1,0,2,1,VM Stimuli/PL_007_92026.bmp,lure,nontarget,Place,2-Back,None,0,,7,0,7,0,0,1,1,1,,,,,,,,,,,,,,,,,,,,,,,,,,,,,,,,,,,,,,,,,,,,,,,,,,,,,,,,,,,,,,,,,,,,,,,,,,,,,,,,,,,,,,,,,,,,2026-01-23_12h24.07.992,,,,,,,,469.62869091611356,469.63810412492603,470.1518062502146,470.12170491646975,,,,,,,,,,,,,,,,,,,,,,,,,,,,,,,,,,,,,123456,1,Right,1,2026-01-23_12h24.07.992,EmoNback_Behavioral,,2025.1.1,None,2026-01-23 12h24.20.588612 -0600,
2,2,0,3,1,VM Stimuli/PL_010_92038.bmp,nonlure,nontarget,Place,2-Back,None,0,,7,0,7,0,0,2,2,2,,,,,,,,,470.1518062502146,,,,,,,,,,,,,,,,,,,,,,,,,,,,,,,,,,,,,,,,,,,,,,,,,,,,,,,,,,,,,,470.1223842082545,,470.1224100831896,470.1409375416115,470.1409698333591,470.14530195854604,470.1518062502146,470.1518062502146,470.1518062502146,470.1518062502146,472.1447455417365,472.1447455417365,472.1447455417365,472.1447455417365,472.13804408349097,None,0,2,NA,NA,NA,2026-01-23_12h24.07.992,12:32:12,1,1,7,3,VM Stimuli/PL_010_92038.bmp,Place,,,,,,,,,,,,,,,,,,,,,,,,,,,,,,,,,,,,,,,,,123456,1,Right,1,2026-01-23_12h24.07.992,EmoNback_Behavioral,,2025.1.1,None,2026-01-23 12h24.20.588612 -0600,
2,2,0,3,1,VM Stimuli/PL_010_92038.bmp,nonlure,nontarget,Place,2-Back,None,0,,7,0,7,0,0,2,2,2,,,,,,,,,,,,,,,,,,,,,,,,,,,,,,,,,,,,,,,,,,,,,,,,,,,,,,,,,,,,,,,,,,,,,,,,,,,,,,,,,,,,,,,,,,,,2026-01-23_12h24.07.992,,,,,,,,472.1386012081057,472.1447455417365,472.66402670834213,472.63126616645604,,,,,,,,,,,,,,,,,,,,,,,,,,,,,,,,,,,,,123456,1,Right,1,2026-01-23_12h24.07.992,EmoNback_Behavioral,,2025.1.1,None,2026-01-23 12h24.20.588612 -0600,
3,3,0,4,1,VM Stimuli/PL_009_92037.bmp,nonlure,nontarget,Place,2-Back,None,0,,7,0,7,0,0,3,3,3,,,,,,,,,472.66402670834213,,,,,,,,,,,,,,,,,,,,,,,,,,,,,,,,,,,,,,,,,,,,,,,,,,,,,,,,,,,,,,472.6318464586511,,472.63186820875853,472.6509155416861,472.6509505836293,472.6565207913518,472.66402670834213,472.66402670834213,472.66402670834213,472.66402670834213,,,,,474.65465387515724,None,0,2,NA,NA,NA,2026-01-23_12h24.07.992,12:32:15,1,1,7,4,VM Stimuli/PL_009_92037.bmp,Place,,,,,,,,,,,,,,,,,,,,,,,,,,,,,,,,,,,,,,,,,123456,1,Right,1,2026-01-23_12h24.07.992,EmoNback_Behavioral,,2025.1.1,None,2026-01-23 12h24.20.588612 -0600,
3,3,0,4,1,VM Stimuli/PL_009_92037.bmp,nonlure,nontarget,Place,2-Back,None,0,,7,0,7,0,0,3,3,3,,,,,,,,,,,,,,,,,,,,,,,,,,,,,,,,,,,,,,,,,,,,,,,,,,,,,,,,,,,,,,,,,,,,,,,,,,,,,,,,,,,,,,,,,,,,2026-01-23_12h24.07.992,,,,,,,,474.65517950057983,474.66220733337104,,475.15470166597515,,,,,,,,,,,,,,,,,,,,,,,,,,,,,,,,,,,,,123456,1,Right,1,2026-01-23_12h24.07.992,EmoNback_Behavioral,,2025.1.1,None,2026-01-23 12h24.20.588612 -0600,
4,4,0,5,1,VM Stimuli/PL_010_92038.bmp,target,Target,Place,2-Back,None,0,,7,0,7,0,0,4,4,4,,,,,,,,,475.18566541653126,,,,,,,,,,,,,,,,,,,,,,,,,,,,,,,,,,,,,,,,,,,,,,,,,,,,,,,,,,,,,,475.1553521659225,,475.1553784580901,475.1776114581153,475.1776441251859,475.1802456667647,475.18566541653126,475.18566541653126,475.18566541653126,475.18566541653126,477.1761777913198,477.1761777913198,477.1761777913198,477.1761777913198,477.1711275829002,None,0,1,NA,NA,NA,2026-01-23_12h24.07.992,12:32:17,1,1,7,5,VM Stimuli/PL_010_92038.bmp,Place,,,,,,,,,,,,,,,,,,,,,,,,,,,,,,,,,,,,,,,,,123456,1,Right,1,2026-01-23_12h24.07.992,EmoNback_Behavioral,,2025.1.1,None,2026-01-23 12h24.20.588612 -0600,
4,4,0,5,1,VM Stimuli/PL_010_92038.bmp,target,Target,Place,2-Back,None,0,,7,0,7,0,0,4,4,4,,,,,,,,,,,,,,,,,,,,,,,,,,,,,,,,,,,,,,,,,,,,,,,,,,,,,,,,,,,,,,,,,,,,,,,,,,,,,,,,,,,,,,,,,,,,2026-01-23_12h24.07.992,,,,,,,,477.1715498333797,477.1761777913198,477.6953380834311,477.6644665412605,,,,,,,,,,,,,,,,,,,,,,,,,,,,,,,,,,,,,123456,1,Right,1,2026-01-23_12h24.07.992,EmoNback_Behavioral,,2025.1.1,None,2026-01-23 12h24.20.588612 -0600,
5,5,0,6,1,VM Stimuli/PL_009_92037.bmp,target,Target,Place,2-Back,None,0,,7,0,7,0,0,5,5,5,,,,,,,,,477.6953380834311,,,,,,,,,,,,,,,,,,,,,,,,,,,,,,,,,,,,,,,,,,,,,,,,,,,,,,,,,,,,,,477.66498795803636,,477.6650086250156,477.6863002087921,477.6863338332623,477.68916712515056,477.6953380834311,477.6953380834311,477.6953380834311,477.6953380834311,,,,,479.68803212512285,None,0,1,NA,NA,NA,2026-01-23_12h24.07.992,12:32:20,1,1,7,6,VM Stimuli/PL_009_92037.bmp,Place,,,,,,,,,,,,,,,,,,,,,,,,,,,,,,,,,,,,,,,,,123456,1,Right,1,2026-01-23_12h24.07.992,EmoNback_Behavioral,,2025.1.1,None,2026-01-23 12h24.20.588612 -0600,
5,5,0,6,1,VM Stimuli/PL_009_92037.bmp,target,Target,Place,2-Back,None,0,,7,0,7,0,0,5,5,5,,,,,,,,,,,,,,,,,,,,,,,,,,,,,,,,,,,,,,,,,,,,,,,,,,,,,,,,,,,,,,,,,,,,,,,,,,,,,,,,,,,,,,,,,,,,2026-01-23_12h24.07.992,,,,,,,,479.6885715415701,479.6957831662148,,480.18811025004834,,,,,,,,,,,,,,,,,,,,,,,,,,,,,,,,,,,,,123456,1,Right,1,2026-01-23_12h24.07.992,EmoNback_Behavioral,,2025.1.1,None,2026-01-23 12h24.20.588612 -0600,
6,6,0,7,1,VM Stimuli/PL_008_92033.bmp,nonlure,nontarget,Place,2-Back,None,0,,7,0,7,0,0,6,6,6,,,,,,,,,480.22657862491906,,,,,,,,,,,,,,,,,,,,,,,,,,,,,,,,,,,,,,,,,,,,,,,,,,,,,,,,,,,,,,480.1887272503227,,480.18875220790505,480.21569262538105,480.2157287085429,480.22041750047356,480.22657862491906,480.22657862491906,480.22657862491906,480.22657862491906,482.2211799584329,482.2211799584329,482.2211799584329,482.2211799584329,482.2098679160699,None,0,2,NA,NA,NA,2026-01-23_12h24.07.992,12:32:22,1,1,7,7,VM Stimuli/PL_008_92033.bmp,Place,,,,,,,,,,,,,,,,,,,,,,,,,,,,,,,,,,,,,,,,,123456,1,Right,1,2026-01-23_12h24.07.992,EmoNback_Behavioral,,2025.1.1,None,2026-01-23 12h24.20.588612 -0600,
6,6,0,7,1,VM Stimuli/PL_008_92033.bmp,nonlure,nontarget,Place,2-Back,None,0,,7,0,7,0,0,6,6,6,,,,,,,,,,,,,,,,,,,,,,,,,,,,,,,,,,,,,,,,,,,,,,,,,,,,,,,,,,,,,,,,,,,,,,,,,,,,,,,,,,,,,,,,,,,,2026-01-23_12h24.07.992,,,,,,,,482.2102847499773,482.2211799584329,482.7390004582703,482.70467212516814,,,,,,,,,,,,,,,,,,,,,,,,,,,,,,,,,,,,,123456,1,Right,1,2026-01-23_12h24.07.992,EmoNback_Behavioral,,2025.1.1,None,2026-01-23 12h24.20.588612 -0600,
7,7,0,8,1,VM Stimuli/PL_012_92047.bmp,nonlure,nontarget,Place,2-Back,None,0,,7,0,7,0,0,7,7,7,,,,,,,,,482.7390004582703,,,,,,,,,,,,,,,,,,,,,,,,,,,,,,,,,,,,,,,,,,,,,,,,,,,,,,,,,,,,,,482.7052535004914,,482.70527762547135,482.72887387499213,482.72890975046903,482.7317047500983,482.7390004582703,482.7390004582703,482.7390004582703,482.7390004582703,484.73782187514007,484.73782187514007,484.73782187514007,484.73782187514007,484.72851216606796,None,0,2,NA,NA,NA,2026-01-23_12h24.07.992,12:32:25,1,1,7,8,VM Stimuli/PL_012_92047.bmp,Place,,,,,,,,,,,,,,,,,,,,,,,,,,,,,,,,,,,,,,,,,123456,1,Right,1,2026-01-23_12h24.07.992,EmoNback_Behavioral,,2025.1.1,None,2026-01-23 12h24.20.588612 -0600,
7,7,0,8,1,VM Stimuli/PL_012_92047.bmp,nonlure,nontarget,Place,2-Back,None,0,,7,0,7,0,0,7,7,7,,,,,,,,,,,,,,,,,,,,,,,,,,,,,,,,,,,,,,,,,,,,,,,,,,,,,,,,,,,,,,,,,,,,,,,,,,,,,,,,,,,,,,,,,,,,2026-01-23_12h24.07.992,,,,,,,,484.7289692508057,484.73782187514007,485.2470670007169,485.2211762499064,,,,,,,,,,,,,,,,,,,,,,,,,,,,,,,,,,,,,123456,1,Right,1,2026-01-23_12h24.07.992,EmoNback_Behavioral,,2025.1.1,None,2026-01-23 12h24.20.588612 -0600,
8,8,0,9,1,VM Stimuli/PL_012_92047.bmp,lure,nontarget,Place,2-Back,None,0,,7,0,7,0,0,8,8,8,,,,,,,,,485.2470670007169,,,,,,,,,,,,,,,,,,,,,,,,,,,,,,,,,,,,,,,,,,,,,,,,,,,,,,,,,,,,,,485.22177137527615,,485.22179483342916,485.2395235411823,485.23955887556076,485.24150270875543,485.2470670007169,485.2470670007169,485.2470670007169,485.2470670007169,487.2444788329303,487.2444788329303,487.2444788329303,487.2444788329303,487.23874829150736,None,0,2,NA,NA,NA,2026-01-23_12h24.07.992,12:32:27,1,1,7,9,VM Stimuli/PL_012_92047.bmp,Place,,,,,,,,,,,,,,,,,,,,,,,,,,,,,,,,,,,,,,,,,123456,1,Right,1,2026-01-23_12h24.07.992,EmoNback_Behavioral,,2025.1.1,None,2026-01-23 12h24.20.588612 -0600,
8,8,0,9,1,VM Stimuli/PL_012_92047.bmp,lure,nontarget,Place,2-Back,None,0,,7,0,7,0,0,8,8,8,,,,,,,,,,,,,,,,,,,,,,,,,,,,,,,,,,,,,,,,,,,,,,,,,,,,,,,,,,,,,,,,,,,,,,,,,,,,,,,,,,,,,,,,,,,,2026-01-23_12h24.07.992,,,,,,,,487.2394162910059,487.2444788329303,487.7576807914302,487.72804491594434,,,,,,,,,,,,,,,,,,,,,,,,,,,,,,,,,,,,,123456,1,Right,1,2026-01-23_12h24.07.992,EmoNback_Behavioral,,2025.1.1,None,2026-01-23 12h24.20.588612 -0600,
9,9,0,10,1,VM Stimuli/PL_011_92044.bmp,nonlure,nontarget,Place,2-Back,None,0,,7,0,7,0,0,9,9,9,,,,,,,,,487.7576807914302,,,,,,,,,,,,,,,,,,,,,,,,,,,,,,,,,,,,,,,,,,,,,,,,,,,,,,,,,,,,,,487.72853662539274,,487.72855729144067,487.7489938335493,487.7490256661549,487.7518877508119,487.7576807914302,487.7576807914302,487.7576807914302,487.7576807914302,489.7543040001765,489.7543040001765,489.7543040001765,489.7543040001765,489.74477104097605,None,0,2,NA,NA,NA,2026-01-23_12h24.07.992,12:32:30,1,1,7,10,VM Stimuli/PL_011_92044.bmp,Place,,,,,,,,,,,,,,,,,,,,,,,,,,,,,,,,,,,,,,,,,123456,1,Right,1,2026-01-23_12h24.07.992,EmoNback_Behavioral,,2025.1.1,None,2026-01-23 12h24.20.588612 -0600,
9,9,0,10,1,VM Stimuli/PL_011_92044.bmp,nonlure,nontarget,Place,2-Back,None,0,,7,0,7,0,0,9,9,9,,,,,,,,,,,,,,,,,,,,,,,,,,,,,,,,,,,,,,,,,,,,,,,,,,,,,,,,,,,,,,,,,,,,,,,,,,,,,,,,,,,,,,,,,,,,2026-01-23_12h24.07.992,,,,,,,,489.74516162555665,489.7543040001765,490.2473351256922,490.23811670858413,,,,,,,,,,,,,,,,,,,,,,,,,,,,,,,,,,,,,123456,1,Right,1,2026-01-23_12h24.07.992,EmoNback_Behavioral,,2025.1.1,None,2026-01-23 12h24.20.588612 -0600,
,,,,,,,,,,,,,,,,,,,,,,,,,,,,,,,,,,,,,,,,,,,,,,,,,,,,,,,,,,,,,,,,,,,,,,,,,,,,,,,,,,,,,,,,,,,,,,,,,,,,,,,,,,,,,,,,2026-01-23_12h24.07.992,,,,,,,,,,,,490.24038200080395,490.2404375830665,,,,,490.2417131252587,490.2473351256922,505.24517420865595,505.23762575071305,,,,,,,,,,,,,,,,,,,,,,,,,,,123456,1,Right,1,2026-01-23_12h24.07.992,EmoNback_Behavioral,,2025.1.1,None,2026-01-23 12h24.20.588612 -0600,
,,,,,,,,,,,,,,,,,,,,,,,,,,,,,,,,,,,,,,,,,,,,,,,,,,,,,,,,,,,,,,,,,,,,,,,,,,,,,,,,,,,,,,,,,,,,,,,,,,,,,,,,,,,,,,,,2026-01-23_12h24.07.992,,,,,,,,,,,,,,,,,,,,,,505.238627333194,505.24517420865595,510.24460262525827,510.2372667910531,,,,,,,,,,,,,,,,,,,,,,,123456,1,Right,1,2026-01-23_12h24.07.992,EmoNback_Behavioral,,2025.1.1,None,2026-01-23 12h24.20.588612 -0600,
,,,,,,,,,,,,,,,,,,,,,,,,,,,,,,,,,,,,,,,,,,,,,,,,,,,,,,,,,,,,,,,,,,,,,,,,,,,,,,,,,,,,,,,,,,,,,,,,,,,,,,,,,,,,,,,,2026-01-23_12h24.07.992,,,,,,,,,,,,,,,,,,,,,,,,,,510.2390276249498,510.24460262525827,510.24460262525827,558.6992395007983,space,48.43768279068172,None,,,,,,,,,,,,,,,,123456,1,Right,1,2026-01-23_12h24.07.992,EmoNback_Behavioral,,2025.1.1,None,2026-01-23 12h24.20.588612 -0600,
,,,,,,,,,,,,,,,,,,,,,,,,,,,,,,,,,,,,,,,,,,,,,,,,,,,,,,,,,,,,,,,,,,,,,,,,,,,,,,,,,,,,,,,,,,,,,,,,,,,,,,,,,,,,,,,,2026-01-23_12h24.07.992,,,,,,,,,,,,,,,,,,,,,,,,,,,,,,,,,558.7030355837196,558.7112341253087,558.7112341253087,558.987633375451,space,0.2744956240057945,None,,,,,,,,,123456,1,Right,1,2026-01-23_12h24.07.992,EmoNback_Behavioral,,2025.1.1,None,2026-01-23 12h24.20.588612 -0600,
,,,,,,,,,,,,,,,,,,,,,,,,,,,,,,,,,,,,,,,,,,,,,,,,,,,,,,,,,,,,,,,,,,,,,,,,,,,,,,,,,558.9906390001997,559.0199129581451,559.0199129581451,560.2931694164872,t,1.269931166432798,None,,,,,,,,,,,,,,,,,,,,,,,,,2026-01-23_12h24.07.992,,,,,,,,,,,,,,,,,,,,,,,,,,,,,,,,,,,,,,,,,,,,,,,,123456,1,Right,1,2026-01-23_12h24.07.992,EmoNback_Behavioral,,2025.1.1,None,2026-01-23 12h24.20.588612 -0600,
0,0,0,1,1,VM Stimuli/16F_FO.bmp,nonlure,nontarget,NegFace,2-Back,None,0,,,,,,,,,,0,0,0,0,0,0,0,0,560.8028552085161,,,,,,,,,,,,,,,,,,,,,,,,,,,,,,,,,,,,,,,,,,,,,,,,,,,,,,,,,,,,,,560.7983895409852,560.8028552085161,563.2767942501232,563.337045500055,563.3370892507955,563.3442662507296,563.3535972917452,563.3535972917452,563.3535972917452,563.3535972917452,,,,,565.3413865836337,,,2,NA,NA,NA,2026-01-23_12h24.07.992,12:33:45,1,2,0,1,VM Stimuli/16F_FO.bmp,NegFace,,,,,,,,,,,,,,,,,,,,,,,,,,,,,,,,,560.2944186255336,560.3025670005009,560.8028552085161,560.786526250653,None,0,,,123456,1,Right,1,2026-01-23_12h24.07.992,EmoNback_Behavioral,,2025.1.1,None,2026-01-23 12h24.20.588612 -0600,
0,0,0,1,1,VM Stimuli/16F_FO.bmp,nonlure,nontarget,NegFace,2-Back,None,0,,,,,,,,,,0,0,0,0,0,0,0,0,,,,,,,,,,,,,,,,,,,,,,,,,,,,,,,,,,,,,,,,,,,,,,,,,,,,,,,,,,,,,,,,,,,,,,,,,,,,,,,,,,,,2026-01-23_12h24.07.992,,,,,,,,565.3420401662588,565.3528599999845,565.8704595416784,565.8361182082444,,,,,,,,,,,,,,,,,,,,,,,,,,,,,,,,,,,,,123456,1,Right,1,2026-01-23_12h24.07.992,EmoNback_Behavioral,,2025.1.1,None,2026-01-23 12h24.20.588612 -0600,
