thisN,thisTrialN,thisRepN,ID,Weight,Stimulus,TargetType,CorrectResponse,StimType,BlockType,response.keys,response.corr,TargetStimulus,BlockLoop_Run1.thisRepN,BlockLoop_Run1.thisTrialN,BlockLoop_Run1.thisN,BlockLoop_Run1.thisIndex,TrialLoop_Run1.thisRepN,TrialLoop_Run1.thisTrialN,TrialLoop_Run1.thisN,TrialLoop_Run1.thisIndex,thisRow.t,notes,TitlePage.started,Continue.started,NbackTitle.started,TitlePage.stopped,Continue.keys,Continue.rt,Continue.duration,Instructions.started,Continue_2.started,Instruction.started,Instructions.stopped,Continue_2.keys,Continue_2.rt,Continue_2.duration,Instructions_2.started,Continue_3.started,Instruction_2.started,Target.started,TargetImage.started,Instructions_2.stopped,Continue_3.keys,Continue_3.rt,Continue_3.duration,Instructions_3.started,Continue_4.started,Instruction_3.started,Green_Border.started,Image_2Back.started,Image_1Back.started,Image_ToMatch.started,LEFTSIDESCREEN_CAPTION.started,RIGHTSIDESCREEN_CAPTION.started,Instructions_3.stopped,Continue_4.keys,Continue_4.rt,Continue_4.duration,Instructions_4.started,Continue_5.started,Instruction_4.started,Instructions_4.stopped,Continue_5.keys,Continue_5.rt,Continue_5.duration,Instructions_5.started,Continue_6.started,Instruction_5.started,Instructions_5.stopped,Continue_6.keys,Continue_6.rt,Continue_6.duration,Waiting4Scanner.started,Continue_7.started,Scanner_Instruction.started,Waiting4Scanner.stopped,Continue_7.keys,Continue_7.rt,Continue_7.duration,CueFix_Run1.started,Cue_Fix.started,CueFix_Run1.stopped,Cue2Back.started,Cue_2Back.started,Cue2Back.stopped,Cue0Back.started,Cue0Back.stopped,Stim.started,StimulusImage.started,LeftScreenResponse.started,RightScreenResponse.started,response.started,Stim.stopped,TrialLoop_Run1.response.keys,TrialLoop_Run1.response.corr,correctKey,pressedKey,accuracy,RT,date,time,version,run,block,id,stimulus,stimType,Fix.started,End_Fix.started,Fix.stopped,StimulusImage.stopped,LeftScreenResponse.stopped,RightScreenResponse.stopped,response.stopped,End_Fix.stopped,EndBlock_Run1.started,EndBlock_Run1.stopped,Cue_Target.started,Cue_TargetImage.started,Cue_Fix.stopped,Fix15Sec.started,Fix_15_Sec.started,Fix_15_Sec.stopped,Fix15Sec.stopped,Fix5Sec.started,Fix_5_Sec.started,Fix_5_Sec.stopped,Fix5Sec.stopped,Instructions_6.started,Continue_8.started,Instruction_6.started,Please enter the Subject ID:,Please enter the Session Number:,Enter subject's handedness:,Please select version:,date,expName,expVersion,psychopyVersion,frameRate,expStart,
,,,,,,,,,,,,,,,,,,,,,,,0.015403499826788902,0.029192416928708553,0.029192416928708553,1.1722007915377617,space,0.970921041443944,None,,,,,,,,,,,,,,,,,,,,,,,,,,,,,,,,,,,,,,,,,,,,,,,,,,,,,,,,,,,,,,,,,,,,,,,2026-01-20_12h28.15.749,,,,,,,,,,,,,,,,,,,,,,,,,,,,,,,,543211,1,Right,1,2026-01-20_12h28.15.749,EmoNback_Behavioral,,2025.1.1,90.6335517944242,2026-01-20 12h28.33.007337 -0600,
,,,,,,,,,,,,,,,,,,,,,,,,,,,,,,1.1734227081760764,1.186550791375339,1.186550791375339,1.6862327074632049,space,0.49475220777094364,None,,,,,,,,,,,,,,,,,,,,,,,,,,,,,,,,,,,,,,,,,,,,,,,,,,,,,,,,,,,,,,,,2026-01-20_12h28.15.749,,,,,,,,,,,,,,,,,,,,,,,,,,,,,,,,543211,1,Right,1,2026-01-20_12h28.15.749,EmoNback_Behavioral,,2025.1.1,90.6335517944242,2026-01-20 12h28.33.007337 -0600,
,,,,,,,,,,,,,,,,,,,,,,,,,,,,,,,,,,,,,1.69003383256495,1.7110800417140126,1.7110800417140126,1.7110800417140126,1.7110800417140126,2.2069860827177763,space,0.4865086246281862,None,,,,,,,,,,,,,,,,,,,,,,,,,,,,,,,,,,,,,,,,,,,,,,,,,,,,,,,2026-01-20_12h28.15.749,,,,,,,,,,,,,,,,,,,,,,,,,,,,,,,,543211,1,Right,1,2026-01-20_12h28.15.749,EmoNback_Behavioral,,2025.1.1,90.6335517944242,2026-01-20 12h28.33.007337 -0600,
,,,,,,,,,,,,,,,,,,,,,,,,,,,,,,,,,,,,,,,,,,,,,,2.209738999605179,2.232977082952857,2.232977082952857,2.232977082952857,2.232977082952857,2.232977082952857,2.232977082952857,2.232977082952857,2.232977082952857,2.5106431245803833,space,0.26827087346464396,None,,,,,,,,,,,,,,,,,,,,,,,,,,,,,,,,,,,,,,,,,,2026-01-20_12h28.15.749,,,,,,,,,,,,,,,,,,,,,,,,,,,,,,,,543211,1,Right,1,2026-01-20_12h28.15.749,EmoNback_Behavioral,,2025.1.1,90.6335517944242,2026-01-20 12h28.33.007337 -0600,
,,,,,,,,,,,,,,,,,,,,,,,,,,,,,,,,,,,,,,,,,,,,,,,,,,,,,,,,,,,2.512202541343868,2.523348624818027,2.523348624818027,2.7957417918369174,space,0.2705657910555601,None,,,,,,,,,,,,,,,,,,,,,,,,,,,,,,,,,,,2026-01-20_12h28.15.749,,,,,,,,,,,,,,,,,,,,,,,,,,,,,,,,543211,1,Right,1,2026-01-20_12h28.15.749,EmoNback_Behavioral,,2025.1.1,90.6335517944242,2026-01-20 12h28.33.007337 -0600,
,,,,,,,,,,,,,,,,,,,,,,,,,,,,,,,,,,,,,,,,,,,,,,,,,,,,,,,,,,,,,,,,,,2.797605624422431,2.811556125059724,2.811556125059724,3.1028012493625283,space,0.2851334996521473,None,,,,,,,,,,,,,,,,,,,,,,,,,,,,2026-01-20_12h28.15.749,,,,,,,,,,,,,,,,,,,,,,,,,,,,,,,,543211,1,Right,1,2026-01-20_12h28.15.749,EmoNback_Behavioral,,2025.1.1,90.6335517944242,2026-01-20 12h28.33.007337 -0600,
,,,,,,,,,,,,,,,,,,,,,,,,,,,,,,,,,,,,,,,,,,,,,,,,,,,,,,,,,,,,,,,,,,,,,,,,,3.104645749554038,3.1195159163326025,3.1195159163326025,5.969515957869589,t,2.846922291442752,None,,,,,,,,,,,,,,,,,,,,,2026-01-20_12h28.15.749,,,,,,,,,,,,,,,,,,,,,,,,,,,,,,,,543211,1,Right,1,2026-01-20_12h28.15.749,EmoNback_Behavioral,,2025.1.1,90.6335517944242,2026-01-20 12h28.33.007337 -0600,
0,0,0,1,1,VM Stimuli/23M_HO.bmp,nonlure,nontarget,PosFace,2-Back,None,0,,0,0,0,0,0,0,0,0,6.509947791695595,,,,,,,,,,,,,,,,,,,,,,,,,,,,,,,,,,,,,,,,,,,,,,,,,,,,,,,,,,,5.971275666728616,5.987453791312873,6.478892541490495,6.497601207345724,6.509947791695595,8.962369707413018,9.0282325418666,9.028298707678914,9.033310417085886,9.047368874773383,9.047368874773383,9.047368874773383,9.047368874773383,11.038916874676943,None,0,2,NA,NA,NA,2026-01-20_12h28.15.749,12:28:44,1,1,0,1,VM Stimuli/23M_HO.bmp,PosFace,,,,,,,,,,,,,,,,,,,,,,,,,543211,1,Right,1,2026-01-20_12h28.15.749,EmoNback_Behavioral,,2025.1.1,90.6335517944242,2026-01-20 12h28.33.007337 -0600,
0,0,0,1,1,VM Stimuli/23M_HO.bmp,nonlure,nontarget,PosFace,2-Back,None,0,,0,0,0,0,0,0,0,0,,,,,,,,,,,,,,,,,,,,,,,,,,,,,,,,,,,,,,,,,,,,,,,,,,,,,,,,,,,,,,,,,,,,,,,,,,,,,,,,2026-01-20_12h28.15.749,,,,,,,,11.039708124473691,11.050118832848966,11.532785416580737,,,,,,,,,,,,,,,,,,,,,,543211,1,Right,1,2026-01-20_12h28.15.749,EmoNback_Behavioral,,2025.1.1,90.6335517944242,2026-01-20 12h28.33.007337 -0600,
1,1,0,2,1,VM Stimuli/12F_HO.bmp,nonlure,nontarget,PosFace,2-Back,None,0,,0,0,0,0,0,1,1,1,11.593102499842644,,,,,,,,,,,,,,,,,,,,,,,,,,,,,,,,,,,,,,,,,,,,,,,,,,,,,,,,,,,,,,11.533914375118911,,11.533962999470532,11.576770666986704,11.576813916675746,11.581067499704659,11.593102499842644,11.593102499842644,11.593102499842644,11.593102499842644,13.576540707610548,None,0,2,NA,NA,NA,2026-01-20_12h28.15.749,12:28:46,1,1,0,2,VM Stimuli/12F_HO.bmp,PosFace,,,,13.58749658241868,13.58749658241868,13.58749658241868,13.58749658241868,,,,,,,,,,,,,,,,,,543211,1,Right,1,2026-01-20_12h28.15.749,EmoNback_Behavioral,,2025.1.1,90.6335517944242,2026-01-20 12h28.33.007337 -0600,
1,1,0,2,1,VM Stimuli/12F_HO.bmp,nonlure,nontarget,PosFace,2-Back,None,0,,0,0,0,0,0,1,1,1,,,,,,,,,,,,,,,,,,,,,,,,,,,,,,,,,,,,,,,,,,,,,,,,,,,,,,,,,,,,,,,,,,,,,,,,,,,,,,,,2026-01-20_12h28.15.749,,,,,,,,13.577138957567513,13.58749658241868,14.078496917150915,,,,,,,,,,,,,,,,,,,,,,543211,1,Right,1,2026-01-20_12h28.15.749,EmoNback_Behavioral,,2025.1.1,90.6335517944242,2026-01-20 12h28.33.007337 -0600,
2,2,0,3,1,VM Stimuli/AF02_HO.bmp,nonlure,nontarget,PosFace,2-Back,None,0,,0,0,0,0,0,2,2,2,14.131200166419148,,,,,,,,,,,,,,,,,,,,,,,,,,,,,,,,,,,,,,,,,,,,,,,,,,,,,,,,,,,,,,14.079458457417786,,14.079505916684866,14.113963374868035,14.114008916541934,14.11867933254689,14.131200166419148,14.131200166419148,14.131200166419148,14.131200166419148,16.124832041561604,None,0,2,NA,NA,NA,2026-01-20_12h28.15.749,12:28:49,1,1,0,3,VM Stimuli/AF02_HO.bmp,PosFace,,,,,,,,,,,,,,,,,,,,,,,,,543211,1,Right,1,2026-01-20_12h28.15.749,EmoNback_Behavioral,,2025.1.1,90.6335517944242,2026-01-20 12h28.33.007337 -0600,
2,2,0,3,1,VM Stimuli/AF02_HO.bmp,nonlure,nontarget,PosFace,2-Back,None,0,,0,0,0,0,0,2,2,2,,,,,,,,,,,,,,,,,,,,,,,,,,,,,,,,,,,,,,,,,,,,,,,,,,,,,,,,,,,,,,,,,,,,,,,,,,,,,,,,2026-01-20_12h28.15.749,,,,,,,,16.12554383277893,16.151627957820892,16.619075457565486,,,,,,,,,,,,,,,,,,,,,,543211,1,Right,1,2026-01-20_12h28.15.749,EmoNback_Behavioral,,2025.1.1,90.6335517944242,2026-01-20 12h28.33.007337 -0600,
3,3,0,4,1,VM Stimuli/12F_HO.bmp,target,Target,PosFace,2-Back,None,0,,0,0,0,0,0,3,3,3,16.6475499169901,,,,,,,,,,,,,,,,,,,,,,,,,,,,,,,,,,,,,,,,,,,,,,,,,,,,,,,,,,,,,,16.62044470757246,,16.62052479200065,16.635320791974664,16.635356541723013,16.63686304166913,16.6475499169901,16.6475499169901,16.6475499169901,16.6475499169901,18.63587599992752,None,0,1,NA,NA,NA,2026-01-20_12h28.15.749,12:28:51,1,1,0,4,VM Stimuli/12F_HO.bmp,PosFace,,,,,,,,,,,,,,,,,,,,,,,,,543211,1,Right,1,2026-01-20_12h28.15.749,EmoNback_Behavioral,,2025.1.1,90.6335517944242,2026-01-20 12h28.33.007337 -0600,
3,3,0,4,1,VM Stimuli/12F_HO.bmp,target,Target,PosFace,2-Back,None,0,,0,0,0,0,0,3,3,3,,,,,,,,,,,,,,,,,,,,,,,,,,,,,,,,,,,,,,,,,,,,,,,,,,,,,,,,,,,,,,,,,,,,,,,,,,,,,,,,2026-01-20_12h28.15.749,,,,,,,,18.636634707450867,18.646658374927938,19.132826624438167,,,,,19.18092279136181,,,,,,,,,,,,,,,,,543211,1,Right,1,2026-01-20_12h28.15.749,EmoNback_Behavioral,,2025.1.1,90.6335517944242,2026-01-20 12h28.33.007337 -0600,
4,4,0,5,1,VM Stimuli/WM011_HO.bmp,nonlure,nontarget,PosFace,2-Back,None,0,,0,0,0,0,0,4,4,4,19.18092279136181,,,,,,,,,,,,,,,,,,,,,,,,,,,,,,,,,,,,,,,,,,,,,,,,,,,,,,,,,,,,,,19.133791250176728,,19.13383641652763,19.16341754142195,19.163474457338452,19.168045583181083,19.18092279136181,19.18092279136181,19.18092279136181,19.18092279136181,21.172523874789476,None,0,2,NA,NA,NA,2026-01-20_12h28.15.749,12:28:54,1,1,0,5,VM Stimuli/WM011_HO.bmp,PosFace,,,,,,,,,,,,,,,,,,,,,,,,,543211,1,Right,1,2026-01-20_12h28.15.749,EmoNback_Behavioral,,2025.1.1,90.6335517944242,2026-01-20 12h28.33.007337 -0600,
4,4,0,5,1,VM Stimuli/WM011_HO.bmp,nonlure,nontarget,PosFace,2-Back,None,0,,0,0,0,0,0,4,4,4,,,,,,,,,,,,,,,,,,,,,,,,,,,,,,,,,,,,,,,,,,,,,,,,,,,,,,,,,,,,,,,,,,,,,,,,,,,,,,,,2026-01-20_12h28.15.749,,,,,,,,21.17311295773834,21.18272704165429,21.672166416421533,,,,,,,,,,,,,,,,,,,,,,543211,1,Right,1,2026-01-20_12h28.15.749,EmoNback_Behavioral,,2025.1.1,90.6335517944242,2026-01-20 12h28.33.007337 -0600,
5,5,0,6,1,VM Stimuli/HM04_HO.bmp,nonlure,nontarget,PosFace,2-Back,None,0,,0,0,0,0,0,5,5,5,21.7155696246773,,,,,,,,,,,,,,,,,,,,,,,,,,,,,,,,,,,,,,,,,,,,,,,,,,,,,,,,,,,,,,21.673036416992545,,21.673083749599755,21.698483124375343,21.69854149967432,21.703046875074506,21.7155696246773,21.7155696246773,21.7155696246773,21.7155696246773,23.718376457691193,None,0,2,NA,NA,NA,2026-01-20_12h28.15.749,12:28:56,1,1,0,6,VM Stimuli/HM04_HO.bmp,PosFace,,,,,,,,,,,,,,,,,,,,,,,,,543211,1,Right,1,2026-01-20_12h28.15.749,EmoNback_Behavioral,,2025.1.1,90.6335517944242,2026-01-20 12h28.33.007337 -0600,
5,5,0,6,1,VM Stimuli/HM04_HO.bmp,nonlure,nontarget,PosFace,2-Back,None,0,,0,0,0,0,0,5,5,5,,,,,,,,,,,,,,,,,,,,,,,,,,,,,,,,,,,,,,,,,,,,,,,,,,,,,,,,,,,,,,,,,,,,,,,,,,,,,,,,2026-01-20_12h28.15.749,,,,,,,,23.719008124433458,23.72990245744586,24.19992629159242,,,,,,,,,,,,,,,,,,,,,,543211,1,Right,1,2026-01-20_12h28.15.749,EmoNback_Behavioral,,2025.1.1,90.6335517944242,2026-01-20 12h28.33.007337 -0600,
6,6,0,7,1,VM Stimuli/AF02_HO.bmp,lure,nontarget,PosFace,2-Back,None,0,,0,0,0,0,0,6,6,6,24.247940874658525,,,,,,,,,,,,,,,,,,,,,,,,,,,,,,,,,,,,,,,,,,,,,,,,,,,,,,,,,,,,,,24.201063791289926,,24.20112366694957,24.22978562489152,24.229837832972407,24.234182625077665,24.247940874658525,24.247940874658525,24.247940874658525,24.247940874658525,26.232490291818976,None,0,2,NA,NA,NA,2026-01-20_12h28.15.749,12:28:59,1,1,0,7,VM Stimuli/AF02_HO.bmp,PosFace,,,,,,,,,,,,,,,,,,,,,,,,,543211,1,Right,1,2026-01-20_12h28.15.749,EmoNback_Behavioral,,2025.1.1,90.6335517944242,2026-01-20 12h28.33.007337 -0600,
6,6,0,7,1,VM Stimuli/AF02_HO.bmp,lure,nontarget,PosFace,2-Back,None,0,,0,0,0,0,0,6,6,6,,,,,,,,,,,,,,,,,,,,,,,,,,,,,,,,,,,,,,,,,,,,,,,,,,,,,,,,,,,,,,,,,,,,,,,,,,,,,,,,2026-01-20_12h28.15.749,,,,,,,,26.233073958195746,26.242500707507133,26.72609983291477,,,,,26.776453082449734,,,,,,,,,,,,,,,,,543211,1,Right,1,2026-01-20_12h28.15.749,EmoNback_Behavioral,,2025.1.1,90.6335517944242,2026-01-20 12h28.33.007337 -0600,
7,7,0,8,1,VM Stimuli/BF037_HO.bmp,nonlure,nontarget,PosFace,2-Back,None,0,,0,0,0,0,0,7,7,7,26.776453082449734,,,,,,,,,,,,,,,,,,,,,,,,,,,,,,,,,,,,,,,,,,,,,,,,,,,,,,,,,,,,,,26.727081957273185,,26.727129416540265,26.760455207899213,26.760500916279852,26.7643622495234,26.776453082449734,26.776453082449734,26.776453082449734,26.776453082449734,28.762264042161405,None,0,2,NA,NA,NA,2026-01-20_12h28.15.749,12:29:01,1,1,0,8,VM Stimuli/BF037_HO.bmp,PosFace,,,,,,,,,,,,,,,,,,,,,,,,,543211,1,Right,1,2026-01-20_12h28.15.749,EmoNback_Behavioral,,2025.1.1,90.6335517944242,2026-01-20 12h28.33.007337 -0600,
7,7,0,8,1,VM Stimuli/BF037_HO.bmp,nonlure,nontarget,PosFace,2-Back,None,0,,0,0,0,0,0,7,7,7,,,,,,,,,,,,,,,,,,,,,,,,,,,,,,,,,,,,,,,,,,,,,,,,,,,,,,,,,,,,,,,,,,,,,,,,,,,,,,,,2026-01-20_12h28.15.749,,,,,,,,28.762923374772072,28.77261162456125,29.262145582586527,,,,,,,,,,,,,,,,,,,,,,543211,1,Right,1,2026-01-20_12h28.15.749,EmoNback_Behavioral,,2025.1.1,90.6335517944242,2026-01-20 12h28.33.007337 -0600,
8,8,0,9,1,VM Stimuli/WM011_HO.bmp,lure,nontarget,PosFace,2-Back,None,0,,0,0,0,0,0,8,8,8,29.308638249523938,,,,,,,,,,,,,,,,,,,,,,,,,,,,,,,,,,,,,,,,,,,,,,,,,,,,,,,,,,,,,,29.26316108275205,,29.263209791854024,29.291503249667585,29.291554457508028,29.29584424942732,29.308638249523938,29.308638249523938,29.308638249523938,29.308638249523938,31.293433582410216,None,0,2,NA,NA,NA,2026-01-20_12h28.15.749,12:29:04,1,1,0,9,VM Stimuli/WM011_HO.bmp,PosFace,,,,,,,,,,,,,,,,,,,,,,,,,543211,1,Right,1,2026-01-20_12h28.15.749,EmoNback_Behavioral,,2025.1.1,90.6335517944242,2026-01-20 12h28.33.007337 -0600,
8,8,0,9,1,VM Stimuli/WM011_HO.bmp,lure,nontarget,PosFace,2-Back,None,0,,0,0,0,0,0,8,8,8,,,,,,,,,,,,,,,,,,,,,,,,,,,,,,,,,,,,,,,,,,,,,,,,,,,,,,,,,,,,,,,,,,,,,,,,,,,,,,,,2026-01-20_12h28.15.749,,,,,,,,31.294059707783163,31.30499962437898,31.78846070729196,,,,,31.832347666844726,,,,,,,,,,,,,,,,,543211,1,Right,1,2026-01-20_12h28.15.749,EmoNback_Behavioral,,2025.1.1,90.6335517944242,2026-01-20 12h28.33.007337 -0600,
9,9,0,10,1,VM Stimuli/BF037_HO.bmp,target,Target,PosFace,2-Back,None,0,,0,0,0,0,0,9,9,9,31.832347666844726,,,,,,,,,,,,,,,,,,,,,,,,,,,,,,,,,,,,,,,,,,,,,,,,,,,,,,,,,,,,,,31.78942354209721,,31.789468166418374,31.81670624949038,31.81675691716373,31.81933358311653,31.832347666844726,31.832347666844726,31.832347666844726,31.832347666844726,33.824098624289036,None,0,1,NA,NA,NA,2026-01-20_12h28.15.749,12:29:06,1,1,0,10,VM Stimuli/BF037_HO.bmp,PosFace,,,,,,,,,,,,,,,,,,,,,,,,,543211,1,Right,1,2026-01-20_12h28.15.749,EmoNback_Behavioral,,2025.1.1,90.6335517944242,2026-01-20 12h28.33.007337 -0600,
9,9,0,10,1,VM Stimuli/BF037_HO.bmp,target,Target,PosFace,2-Back,None,0,,0,0,0,0,0,9,9,9,,,,,,,,,,,,,,,,,,,,,,,,,,,,,,,,,,,,,,,,,,,,,,,,,,,,,,,,,,,,,,,,,,,,,,,,,,,,,,,,2026-01-20_12h28.15.749,,,,,,,,33.82479791715741,33.834994916804135,34.322035166434944,,,,,,,,,,,,,,,,,,,,,,543211,1,Right,1,2026-01-20_12h28.15.749,EmoNback_Behavioral,,2025.1.1,90.6335517944242,2026-01-20 12h28.33.007337 -0600,
0,0,0,1,1,VM Stimuli/LF206_NC.bmp,nonlure,nontarget,NeutFace,0-Back,None,0,VM Stimuli/AF218_NC.bmp,1,0,1,0,0,0,0,0,34.876611332409084,,,,,,,,,,,,,,,,,,,,,,,,,,,,,,,,,,,,,,,,,,,,,,,,,,,,,,,,,,,34.344750166870654,34.355709332972765,34.8450015000999,34.8544654995203,,34.854509375058115,34.86431745812297,37.343122417107224,37.34936854150146,37.36500245798379,37.36500245798379,37.36500245798379,37.36500245798379,39.35243954136968,None,0,2,NA,NA,NA,2026-01-20_12h28.15.749,12:29:12,1,1,1,1,VM Stimuli/LF206_NC.bmp,NeutFace,,,,39.363387666642666,39.363387666642666,39.363387666642666,39.363387666642666,,34.32712479215115,34.32721299957484,34.876611332409084,34.876611332409084,,,,,,,,,,,,,543211,1,Right,1,2026-01-20_12h28.15.749,EmoNback_Behavioral,,2025.1.1,90.6335517944242,2026-01-20 12h28.33.007337 -0600,
0,0,0,1,1,VM Stimuli/LF206_NC.bmp,nonlure,nontarget,NeutFace,0-Back,None,0,VM Stimuli/AF218_NC.bmp,1,0,1,0,0,0,0,0,,,,,,,,,,,,,,,,,,,,,,,,,,,,,,,,,,,,,,,,,,,,,,,,,,,,,,,,,,,,,,,,,,,,,,,,,,,,,,,,2026-01-20_12h28.15.749,,,,,,,,39.35313095804304,39.363387666642666,39.85563945770264,,,,,,,,,,,,,,,,,,,,,,543211,1,Right,1,2026-01-20_12h28.15.749,EmoNback_Behavioral,,2025.1.1,90.6335517944242,2026-01-20 12h28.33.007337 -0600,
1,1,0,2,1,VM Stimuli/AF218_NC.bmp,target,Target,NeutFace,0-Back,None,0,VM Stimuli/AF218_NC.bmp,1,0,1,0,0,1,1,1,39.878004250116646,,,,,,,,,,,,,,,,,,,,,,,,,,,,,,,,,,,,,,,,,,,,,,,,,,,,,,,,,,,,,,39.856618124991655,,39.856664332561195,39.85974137485027,39.85980074945837,39.86309295799583,39.878004250116646,39.878004250116646,39.878004250116646,39.878004250116646,41.85995087493211,None,0,1,NA,NA,NA,2026-01-20_12h28.15.749,12:29:14,1,1,1,2,VM Stimuli/AF218_NC.bmp,NeutFace,,,,,,,,,,,,,,,,,,,,,,,,,543211,1,Right,1,2026-01-20_12h28.15.749,EmoNback_Behavioral,,2025.1.1,90.6335517944242,2026-01-20 12h28.33.007337 -0600,
1,1,0,2,1,VM Stimuli/AF218_NC.bmp,target,Target,NeutFace,0-Back,None,0,VM Stimuli/AF218_NC.bmp,1,0,1,0,0,1,1,1,,,,,,,,,,,,,,,,,,,,,,,,,,,,,,,,,,,,,,,,,,,,,,,,,,,,,,,,,,,,,,,,,,,,,,,,,,,,,,,,2026-01-20_12h28.15.749,,,,,,,,41.86054079141468,41.87115062493831,42.3595384163782,,,,,42.38296620734036,,,,,,,,,,,,,,,,,543211,1,Right,1,2026-01-20_12h28.15.749,EmoNback_Behavioral,,2025.1.1,90.6335517944242,2026-01-20 12h28.33.007337 -0600,
2,2,0,3,1,VM Stimuli/42M_NC.bmp,nonlure,nontarget,NeutFace,0-Back,None,0,VM Stimuli/AF218_NC.bmp,1,0,1,0,0,2,2,2,42.38296620734036,,,,,,,,,,,,,,,,,,,,,,,,,,,,,,,,,,,,,,,,,,,,,,,,,,,,,,,,,,,,,,42.360505582764745,,42.36054849997163,42.36351429205388,42.363577417097986,42.36835449934006,42.38296620734036,42.38296620734036,42.38296620734036,42.38296620734036,44.37249687500298,None,0,2,NA,NA,NA,2026-01-20_12h28.15.749,12:29:17,1,1,1,3,VM Stimuli/42M_NC.bmp,NeutFace,,,,,,,,,,,,,,,,,,,,,,,,,543211,1,Right,1,2026-01-20_12h28.15.749,EmoNback_Behavioral,,2025.1.1,90.6335517944242,2026-01-20 12h28.33.007337 -0600,
2,2,0,3,1,VM Stimuli/42M_NC.bmp,nonlure,nontarget,NeutFace,0-Back,None,0,VM Stimuli/AF218_NC.bmp,1,0,1,0,0,2,2,2,,,,,,,,,,,,,,,,,,,,,,,,,,,,,,,,,,,,,,,,,,,,,,,,,,,,,,,,,,,,,,,,,,,,,,,,,,,,,,,,2026-01-20_12h28.15.749,,,,,,,,44.37309716641903,44.38529600016773,44.867862083017826,,,,,,,,,,,,,,,,,,,,,,543211,1,Right,1,2026-01-20_12h28.15.749,EmoNback_Behavioral,,2025.1.1,90.6335517944242,2026-01-20 12h28.33.007337 -0600,
3,3,0,4,1,VM Stimuli/BM09_NC.bmp,nonlure,nontarget,NeutFace,0-Back,None,0,VM Stimuli/AF218_NC.bmp,1,0,1,0,0,3,3,3,44.89248074963689,,,,,,,,,,,,,,,,,,,,,,,,,,,,,,,,,,,,,,,,,,,,,,,,,,,,,,,,,,,,,,44.86901054158807,,44.869070041924715,44.8727619163692,44.87281987443566,44.87737837433815,44.89248074963689,44.89248074963689,44.89248074963689,44.89248074963689,46.87442254181951,None,0,2,NA,NA,NA,2026-01-20_12h28.15.749,12:29:19,1,1,1,4,VM Stimuli/BM09_NC.bmp,NeutFace,,,,,,,,,,,,,,,,,,,,,,,,,543211,1,Right,1,2026-01-20_12h28.15.749,EmoNback_Behavioral,,2025.1.1,90.6335517944242,2026-01-20 12h28.33.007337 -0600,
3,3,0,4,1,VM Stimuli/BM09_NC.bmp,nonlure,nontarget,NeutFace,0-Back,None,0,VM Stimuli/AF218_NC.bmp,1,0,1,0,0,3,3,3,,,,,,,,,,,,,,,,,,,,,,,,,,,,,,,,,,,,,,,,,,,,,,,,,,,,,,,,,,,,,,,,,,,,,,,,,,,,,,,,2026-01-20_12h28.15.749,,,,,,,,46.875050166621804,46.88502654153854,47.37181320786476,,,,,47.39379883278161,,,,,,,,,,,,,,,,,543211,1,Right,1,2026-01-20_12h28.15.749,EmoNback_Behavioral,,2025.1.1,90.6335517944242,2026-01-20 12h28.33.007337 -0600,
4,4,0,5,1,VM Stimuli/BM09_NC.bmp,lure,nontarget,NeutFace,0-Back,None,0,VM Stimuli/AF218_NC.bmp,1,0,1,0,0,4,4,4,47.39379883278161,,,,,,,,,,,,,,,,,,,,,,,,,,,,,,,,,,,,,,,,,,,,,,,,,,,,,,,,,,,,,,47.37272912450135,,47.372772332280874,47.37581270746887,47.37588445749134,47.37923437450081,47.39379883278161,47.39379883278161,47.39379883278161,47.39379883278161,49.38258633296937,None,0,2,NA,NA,NA,2026-01-20_12h28.15.749,12:29:22,1,1,1,5,VM Stimuli/BM09_NC.bmp,NeutFace,,,,,,,,,,,,,,,,,,,,,,,,,543211,1,Right,1,2026-01-20_12h28.15.749,EmoNback_Behavioral,,2025.1.1,90.6335517944242,2026-01-20 12h28.33.007337 -0600,
4,4,0,5,1,VM Stimuli/BM09_NC.bmp,lure,nontarget,NeutFace,0-Back,None,0,VM Stimuli/AF218_NC.bmp,1,0,1,0,0,4,4,4,,,,,,,,,,,,,,,,,,,,,,,,,,,,,,,,,,,,,,,,,,,,,,,,,,,,,,,,,,,,,,,,,,,,,,,,,,,,,,,,2026-01-20_12h28.15.749,,,,,,,,49.38328924961388,49.393434832803905,49.884287875145674,,,,,,,,,,,,,,,,,,,,,,543211,1,Right,1,2026-01-20_12h28.15.749,EmoNback_Behavioral,,2025.1.1,90.6335517944242,2026-01-20 12h28.33.007337 -0600,
5,5,0,6,1,VM Stimuli/AF218_NC.bmp,target,Target,NeutFace,0-Back,None,0,VM Stimuli/AF218_NC.bmp,1,0,1,0,0,5,5,5,49.906233166344464,,,,,,,,,,,,,,,,,,,,,,,,,,,,,,,,,,,,,,,,,,,,,,,,,,,,,,,,,,,,,,49.8851873325184,,49.88523183297366,49.888380457647145,49.88843879196793,49.89172779209912,49.906233166344464,49.906233166344464,49.906233166344464,49.906233166344464,51.892443208023906,None,0,1,NA,NA,NA,2026-01-20_12h28.15.749,12:29:24,1,1,1,6,VM Stimuli/AF218_NC.bmp,NeutFace,,,,,,,,,,,,,,,,,,,,,,,,,543211,1,Right,1,2026-01-20_12h28.15.749,EmoNback_Behavioral,,2025.1.1,90.6335517944242,2026-01-20 12h28.33.007337 -0600,
5,5,0,6,1,VM Stimuli/AF218_NC.bmp,target,Target,NeutFace,0-Back,None,0,VM Stimuli/AF218_NC.bmp,1,0,1,0,0,5,5,5,,,,,,,,,,,,,,,,,,,,,,,,,,,,,,,,,,,,,,,,,,,,,,,,,,,,,,,,,,,,,,,,,,,,,,,,,,,,,,,,2026-01-20_12h28.15.749,,,,,,,,51.89319350011647,51.904787874780595,52.395941582508385,,,,,,,,,,,,,,,,,,,,,,543211,1,Right,1,2026-01-20_12h28.15.749,EmoNback_Behavioral,,2025.1.1,90.6335517944242,2026-01-20 12h28.33.007337 -0600,
6,6,0,7,1,VM Stimuli/7F_NC.bmp,nonlure,nontarget,NeutFace,0-Back,None,0,VM Stimuli/AF218_NC.bmp,1,0,1,0,0,6,6,6,52.42042799945921,,,,,,,,,,,,,,,,,,,,,,,,,,,,,,,,,,,,,,,,,,,,,,,,,,,,,,,,,,,,,,52.39709479175508,,52.39715008251369,52.40028658229858,52.40034516714513,52.40567904151976,52.42042799945921,52.42042799945921,52.42042799945921,52.42042799945921,54.40529783256352,None,0,2,NA,NA,NA,2026-01-20_12h28.15.749,12:29:27,1,1,1,7,VM Stimuli/7F_NC.bmp,NeutFace,,,,,,,,,,,,,,,,,,,,,,,,,543211,1,Right,1,2026-01-20_12h28.15.749,EmoNback_Behavioral,,2025.1.1,90.6335517944242,2026-01-20 12h28.33.007337 -0600,
6,6,0,7,1,VM Stimuli/7F_NC.bmp,nonlure,nontarget,NeutFace,0-Back,None,0,VM Stimuli/AF218_NC.bmp,1,0,1,0,0,6,6,6,,,,,,,,,,,,,,,,,,,,,,,,,,,,,,,,,,,,,,,,,,,,,,,,,,,,,,,,,,,,,,,,,,,,,,,,,,,,,,,,2026-01-20_12h28.15.749,,,,,,,,54.40592295769602,54.4160303324461,54.90086745750159,,,,,,,,,,,,,,,,,,,,,,543211,1,Right,1,2026-01-20_12h28.15.749,EmoNback_Behavioral,,2025.1.1,90.6335517944242,2026-01-20 12h28.33.007337 -0600,
7,7,0,8,1,VM Stimuli/7F_NC.bmp,lure,nontarget,NeutFace,0-Back,None,0,VM Stimuli/AF218_NC.bmp,1,0,1,0,0,7,7,7,54.92234758287668,,,,,,,,,,,,,,,,,,,,,,,,,,,,,,,,,,,,,,,,,,,,,,,,,,,,,,,,,,,,,,54.90179883316159,,54.90184383280575,54.905050499364734,54.905118292197585,54.90798249933869,54.92234758287668,54.92234758287668,54.92234758287668,54.92234758287668,56.90959483291954,None,0,2,NA,NA,NA,2026-01-20_12h28.15.749,12:29:29,1,1,1,8,VM Stimuli/7F_NC.bmp,NeutFace,,,,,,,,,,,,,,,,,,,,,,,,,543211,1,Right,1,2026-01-20_12h28.15.749,EmoNback_Behavioral,,2025.1.1,90.6335517944242,2026-01-20 12h28.33.007337 -0600,
7,7,0,8,1,VM Stimuli/7F_NC.bmp,lure,nontarget,NeutFace,0-Back,None,0,VM Stimuli/AF218_NC.bmp,1,0,1,0,0,7,7,7,,,,,,,,,,,,,,,,,,,,,,,,,,,,,,,,,,,,,,,,,,,,,,,,,,,,,,,,,,,,,,,,,,,,,,,,,,,,,,,,2026-01-20_12h28.15.749,,,,,,,,56.910215832293034,56.92084791697562,57.40893895737827,,,,,,,,,,,,,,,,,,,,,,543211,1,Right,1,2026-01-20_12h28.15.749,EmoNback_Behavioral,,2025.1.1,90.6335517944242,2026-01-20 12h28.33.007337 -0600,
8,8,0,9,1,VM Stimuli/42M_NC.bmp,lure,nontarget,NeutFace,0-Back,None,0,VM Stimuli/AF218_NC.bmp,1,0,1,0,0,8,8,8,57.43327979184687,,,,,,,,,,,,,,,,,,,,,,,,,,,,,,,,,,,,,,,,,,,,,,,,,,,,,,,,,,,,,,57.409904667176306,,57.40994966682047,57.41302837431431,57.413085707463324,57.418376917019486,57.43327979184687,57.43327979184687,57.43327979184687,57.43327979184687,59.421411249786615,None,0,2,NA,NA,NA,2026-01-20_12h28.15.749,12:29:32,1,1,1,9,VM Stimuli/42M_NC.bmp,NeutFace,,,,,,,,,,,,,,,,,,,,,,,,,543211,1,Right,1,2026-01-20_12h28.15.749,EmoNback_Behavioral,,2025.1.1,90.6335517944242,2026-01-20 12h28.33.007337 -0600,
8,8,0,9,1,VM Stimuli/42M_NC.bmp,lure,nontarget,NeutFace,0-Back,None,0,VM Stimuli/AF218_NC.bmp,1,0,1,0,0,8,8,8,,,,,,,,,,,,,,,,,,,,,,,,,,,,,,,,,,,,,,,,,,,,,,,,,,,,,,,,,,,,,,,,,,,,,,,,,,,,,,,,2026-01-20_12h28.15.749,,,,,,,,59.422019332647324,59.43184633273631,59.91758945770562,,,,,,,,,,,,,,,,,,,,,,543211,1,Right,1,2026-01-20_12h28.15.749,EmoNback_Behavioral,,2025.1.1,90.6335517944242,2026-01-20 12h28.33.007337 -0600,
9,9,0,10,1,VM Stimuli/LM207_NC.bmp,nonlure,nontarget,NeutFace,0-Back,None,0,VM Stimuli/AF218_NC.bmp,1,0,1,0,0,9,9,9,59.94076737482101,,,,,,,,,,,,,,,,,,,,,,,,,,,,,,,,,,,,,,,,,,,,,,,,,,,,,,,,,,,,,,59.918456291779876,,59.918500249274075,59.92160000000149,59.92166920751333,59.926431582309306,59.94076737482101,59.94076737482101,59.94076737482101,59.94076737482101,61.926660457625985,None,0,2,NA,NA,NA,2026-01-20_12h28.15.749,12:29:34,1,1,1,10,VM Stimuli/LM207_NC.bmp,NeutFace,,,,,,,,,,,,,,,,,,,,,,,,,543211,1,Right,1,2026-01-20_12h28.15.749,EmoNback_Behavioral,,2025.1.1,90.6335517944242,2026-01-20 12h28.33.007337 -0600,
9,9,0,10,1,VM Stimuli/LM207_NC.bmp,nonlure,nontarget,NeutFace,0-Back,None,0,VM Stimuli/AF218_NC.bmp,1,0,1,0,0,9,9,9,,,,,,,,,,,,,,,,,,,,,,,,,,,,,,,,,,,,,,,,,,,,,,,,,,,,,,,,,,,,,,,,,,,,,,,,,,,,,,,,2026-01-20_12h28.15.749,,,,,,,,61.92727954220027,61.93796129152179,62.42557491641492,,,,,,,,,,,,,,,,,,,,,,543211,1,Right,1,2026-01-20_12h28.15.749,EmoNback_Behavioral,,2025.1.1,90.6335517944242,2026-01-20 12h28.33.007337 -0600,
0,0,0,1,1,VM Stimuli/17F_FO.bmp,nonlure,nontarget,NegFace,2-Back,None,0,,2,0,2,0,0,0,0,0,62.95868599973619,,,,,,,,,,,,,,,,,,,,,,,,,,,,,,,,,,,,,,,,,,,,,,,,,,,,,,,,,,,62.439441207796335,62.45053287502378,62.93831800017506,62.94740716647357,62.95868599973619,65.42791091650724,65.4601037921384,65.46015312429518,65.46395466662943,65.47653012443334,65.47653012443334,65.47653012443334,65.47653012443334,67.4852989166975,None,0,2,NA,NA,NA,2026-01-20_12h28.15.749,12:29:40,1,1,2,1,VM Stimuli/17F_FO.bmp,NegFace,,,,,,,,,62.429076249711215,62.42915462516248,,,62.95868599973619,,,,,,,,,,,,543211,1,Right,1,2026-01-20_12h28.15.749,EmoNback_Behavioral,,2025.1.1,90.6335517944242,2026-01-20 12h28.33.007337 -0600,
0,0,0,1,1,VM Stimuli/17F_FO.bmp,nonlure,nontarget,NegFace,2-Back,None,0,,2,0,2,0,0,0,0,0,,,,,,,,,,,,,,,,,,,,,,,,,,,,,,,,,,,,,,,,,,,,,,,,,,,,,,,,,,,,,,,,,,,,,,,,,,,,,,,,2026-01-20_12h28.15.749,,,,,,,,67.4859040826559,67.50143345817924,67.97271179128438,,,,,,,,,,,,,,,,,,,,,,543211,1,Right,1,2026-01-20_12h28.15.749,EmoNback_Behavioral,,2025.1.1,90.6335517944242,2026-01-20 12h28.33.007337 -0600,
1,1,0,2,1,VM Stimuli/HM03_FO.bmp,nonlure,nontarget,NegFace,2-Back,None,0,,2,0,2,0,0,1,1,1,68.0598799996078,,,,,,,,,,,,,,,,,,,,,,,,,,,,,,,,,,,,,,,,,,,,,,,,,,,,,,,,,,,,,,67.97546408232301,,67.97561166714877,68.03829849977046,68.03833741694689,68.04333287477493,68.0598799996078,68.0598799996078,68.0598799996078,68.0598799996078,70.04438041709363,None,0,2,NA,NA,NA,2026-01-20_12h28.15.749,12:29:43,1,1,2,2,VM Stimuli/HM03_FO.bmp,NegFace,,,,,,,,,,,,,,,,,,,,,,,,,543211,1,Right,1,2026-01-20_12h28.15.749,EmoNback_Behavioral,,2025.1.1,90.6335517944242,2026-01-20 12h28.33.007337 -0600,
1,1,0,2,1,VM Stimuli/HM03_FO.bmp,nonlure,nontarget,NegFace,2-Back,None,0,,2,0,2,0,0,1,1,1,,,,,,,,,,,,,,,,,,,,,,,,,,,,,,,,,,,,,,,,,,,,,,,,,,,,,,,,,,,,,,,,,,,,,,,,,,,,,,,,2026-01-20_12h28.15.749,,,,,,,,70.04545883275568,70.0561889167875,70.5487019577995,,,,,,,,,,,,,,,,,,,,,,543211,1,Right,1,2026-01-20_12h28.15.749,EmoNback_Behavioral,,2025.1.1,90.6335517944242,2026-01-20 12h28.33.007337 -0600,
2,2,0,3,1,VM Stimuli/BM045_FO.bmp,nonlure,nontarget,NegFace,2-Back,None,0,,2,0,2,0,0,2,2,2,70.63736316654831,,,,,,,,,,,,,,,,,,,,,,,,,,,,,,,,,,,,,,,,,,,,,,,,,,,,,,,,,,,,,,70.54976633284241,,70.54981454182416,70.61807612515986,70.61812345776707,70.62460795789957,70.63736316654831,70.63736316654831,70.63736316654831,70.63736316654831,72.62650774978101,None,0,2,NA,NA,NA,2026-01-20_12h28.15.749,12:29:45,1,1,2,3,VM Stimuli/BM045_FO.bmp,NegFace,,,,,,,,,,,,,,,,,,,,,,,,,543211,1,Right,1,2026-01-20_12h28.15.749,EmoNback_Behavioral,,2025.1.1,90.6335517944242,2026-01-20 12h28.33.007337 -0600,
2,2,0,3,1,VM Stimuli/BM045_FO.bmp,nonlure,nontarget,NegFace,2-Back,None,0,,2,0,2,0,0,2,2,2,,,,,,,,,,,,,,,,,,,,,,,,,,,,,,,,,,,,,,,,,,,,,,,,,,,,,,,,,,,,,,,,,,,,,,,,,,,,,,,,2026-01-20_12h28.15.749,,,,,,,,72.62719141691923,72.63786487467587,73.12544833309948,,,,,,,,,,,,,,,,,,,,,,543211,1,Right,1,2026-01-20_12h28.15.749,EmoNback_Behavioral,,2025.1.1,90.6335517944242,2026-01-20 12h28.33.007337 -0600,
3,3,0,4,1,VM Stimuli/HM03_FO.bmp,target,Target,NegFace,2-Back,None,0,,2,0,2,0,0,3,3,3,73.17002287507057,,,,,,,,,,,,,,,,,,,,,,,,,,,,,,,,,,,,,,,,,,,,,,,,,,,,,,,,,,,,,,73.1264237081632,,73.1264717914164,73.1546721663326,73.15472412481904,73.15729924943298,73.17002287507057,73.17002287507057,73.17002287507057,73.17002287507057,75.15522087458521,None,0,1,NA,NA,NA,2026-01-20_12h28.15.749,12:29:48,1,1,2,4,VM Stimuli/HM03_FO.bmp,NegFace,,,,,,,,,,,,,,,,,,,,,,,,,543211,1,Right,1,2026-01-20_12h28.15.749,EmoNback_Behavioral,,2025.1.1,90.6335517944242,2026-01-20 12h28.33.007337 -0600,
3,3,0,4,1,VM Stimuli/HM03_FO.bmp,target,Target,NegFace,2-Back,None,0,,2,0,2,0,0,3,3,3,,,,,,,,,,,,,,,,,,,,,,,,,,,,,,,,,,,,,,,,,,,,,,,,,,,,,,,,,,,,,,,,,,,,,,,,,,,,,,,,2026-01-20_12h28.15.749,,,,,,,,75.15578879136592,75.16531470790505,75.64870762452483,,,,,75.69427937455475,,,,,,,,,,,,,,,,,543211,1,Right,1,2026-01-20_12h28.15.749,EmoNback_Behavioral,,2025.1.1,90.6335517944242,2026-01-20 12h28.33.007337 -0600,
4,4,0,5,1,VM Stimuli/17F_FO.bmp,lure,nontarget,NegFace,2-Back,None,0,,2,0,2,0,0,4,4,4,75.69427937455475,,,,,,,,,,,,,,,,,,,,,,,,,,,,,,,,,,,,,,,,,,,,,,,,,,,,,,,,,,,,,,75.64965870790184,,75.64970333315432,75.67699874937534,75.67704529128969,75.68156187515706,75.69427937455475,75.69427937455475,75.69427937455475,75.69427937455475,77.68386095762253,None,0,2,NA,NA,NA,2026-01-20_12h28.15.749,12:29:50,1,1,2,5,VM Stimuli/17F_FO.bmp,NegFace,,,,,,,,,,,,,,,,,,,,,,,,,543211,1,Right,1,2026-01-20_12h28.15.749,EmoNback_Behavioral,,2025.1.1,90.6335517944242,2026-01-20 12h28.33.007337 -0600,
4,4,0,5,1,VM Stimuli/17F_FO.bmp,lure,nontarget,NegFace,2-Back,None,0,,2,0,2,0,0,4,4,4,,,,,,,,,,,,,,,,,,,,,,,,,,,,,,,,,,,,,,,,,,,,,,,,,,,,,,,,,,,,,,,,,,,,,,,,,,,,,,,,2026-01-20_12h28.15.749,,,,,,,,77.68621912505478,77.69856029190123,78.18394670728594,,,,,,,,,,,,,,,,,,,,,,543211,1,Right,1,2026-01-20_12h28.15.749,EmoNback_Behavioral,,2025.1.1,90.6335517944242,2026-01-20 12h28.33.007337 -0600,
5,5,0,6,1,VM Stimuli/BM045_FO.bmp,lure,nontarget,NegFace,2-Back,None,0,,2,0,2,0,0,5,5,5,78.23850512504578,,,,,,,,,,,,,,,,,,,,,,,,,,,,,,,,,,,,,,,,,,,,,,,,,,,,,,,,,,,,,,78.18510820809752,,78.18515608273447,78.2224953752011,78.22254008240998,78.22642916627228,78.23850512504578,78.23850512504578,78.23850512504578,78.23850512504578,80.22727004159242,None,0,2,NA,NA,NA,2026-01-20_12h28.15.749,12:29:53,1,1,2,6,VM Stimuli/BM045_FO.bmp,NegFace,,,,,,,,,,,,,,,,,,,,,,,,,543211,1,Right,1,2026-01-20_12h28.15.749,EmoNback_Behavioral,,2025.1.1,90.6335517944242,2026-01-20 12h28.33.007337 -0600,
5,5,0,6,1,VM Stimuli/BM045_FO.bmp,lure,nontarget,NegFace,2-Back,None,0,,2,0,2,0,0,5,5,5,,,,,,,,,,,,,,,,,,,,,,,,,,,,,,,,,,,,,,,,,,,,,,,,,,,,,,,,,,,,,,,,,,,,,,,,,,,,,,,,2026-01-20_12h28.15.749,,,,,,,,80.22825133241713,80.24050987511873,80.73412583302706,,,,,,,,,,,,,,,,,,,,,,543211,1,Right,1,2026-01-20_12h28.15.749,EmoNback_Behavioral,,2025.1.1,90.6335517944242,2026-01-20 12h28.33.007337 -0600,
6,6,0,7,1,VM Stimuli/9F_FO.bmp,nonlure,nontarget,NegFace,2-Back,None,0,,2,0,2,0,0,6,6,6,80.77966095786542,,,,,,,,,,,,,,,,,,,,,,,,,,,,,,,,,,,,,,,,,,,,,,,,,,,,,,,,,,,,,,80.73514937516302,,80.73519229143858,80.76246574986726,80.76250308286399,80.76587329152972,80.77966095786542,80.77966095786542,80.77966095786542,80.77966095786542,82.76598083227873,None,0,2,NA,NA,NA,2026-01-20_12h28.15.749,12:29:55,1,1,2,7,VM Stimuli/9F_FO.bmp,NegFace,,,,,,,,,,,,,,,,,,,,,,,,,543211,1,Right,1,2026-01-20_12h28.15.749,EmoNback_Behavioral,,2025.1.1,90.6335517944242,2026-01-20 12h28.33.007337 -0600,
6,6,0,7,1,VM Stimuli/9F_FO.bmp,nonlure,nontarget,NegFace,2-Back,None,0,,2,0,2,0,0,6,6,6,,,,,,,,,,,,,,,,,,,,,,,,,,,,,,,,,,,,,,,,,,,,,,,,,,,,,,,,,,,,,,,,,,,,,,,,,,,,,,,,2026-01-20_12h28.15.749,,,,,,,,82.76662654150277,82.7764056250453,83.26727754157037,,,,,,,,,,,,,,,,,,,,,,543211,1,Right,1,2026-01-20_12h28.15.749,EmoNback_Behavioral,,2025.1.1,90.6335517944242,2026-01-20 12h28.33.007337 -0600,
7,7,0,8,1,VM Stimuli/WM004_FO.bmp,nonlure,nontarget,NegFace,2-Back,None,0,,2,0,2,0,0,7,7,7,83.32054954208434,,,,,,,,,,,,,,,,,,,,,,,,,,,,,,,,,,,,,,,,,,,,,,,,,,,,,,,,,,,,,,83.26814066711813,,83.2681886665523,83.30381887499243,83.30386512447149,83.30844512488693,83.32054954208434,83.32054954208434,83.32054954208434,83.32054954208434,85.30917624942958,None,0,2,NA,NA,NA,2026-01-20_12h28.15.749,12:29:58,1,1,2,8,VM Stimuli/WM004_FO.bmp,NegFace,,,,,,,,,,,,,,,,,,,,,,,,,543211,1,Right,1,2026-01-20_12h28.15.749,EmoNback_Behavioral,,2025.1.1,90.6335517944242,2026-01-20 12h28.33.007337 -0600,
7,7,0,8,1,VM Stimuli/WM004_FO.bmp,nonlure,nontarget,NegFace,2-Back,None,0,,2,0,2,0,0,7,7,7,,,,,,,,,,,,,,,,,,,,,,,,,,,,,,,,,,,,,,,,,,,,,,,,,,,,,,,,,,,,,,,,,,,,,,,,,,,,,,,,2026-01-20_12h28.15.749,,,,,,,,85.30984216649085,85.32045945804566,85.80349220801145,,,,,85.84790429193527,,,,,,,,,,,,,,,,,543211,1,Right,1,2026-01-20_12h28.15.749,EmoNback_Behavioral,,2025.1.1,90.6335517944242,2026-01-20 12h28.33.007337 -0600,
8,8,0,9,1,VM Stimuli/9F_FO.bmp,target,Target,NegFace,2-Back,None,0,,2,0,2,0,0,8,8,8,85.84790429193527,,,,,,,,,,,,,,,,,,,,,,,,,,,,,,,,,,,,,,,,,,,,,,,,,,,,,,,,,,,,,,85.80452354159206,,85.80457062460482,85.83196162432432,85.83201391715556,85.83467583265156,85.84790429193527,85.84790429193527,85.84790429193527,85.84790429193527,87.8317717500031,None,0,1,NA,NA,NA,2026-01-20_12h28.15.749,12:30:00,1,1,2,9,VM Stimuli/9F_FO.bmp,NegFace,,,,87.84172062482685,87.84172062482685,87.84172062482685,87.84172062482685,,,,,,,,,,,,,,,,,,543211,1,Right,1,2026-01-20_12h28.15.749,EmoNback_Behavioral,,2025.1.1,90.6335517944242,2026-01-20 12h28.33.007337 -0600,
8,8,0,9,1,VM Stimuli/9F_FO.bmp,target,Target,NegFace,2-Back,None,0,,2,0,2,0,0,8,8,8,,,,,,,,,,,,,,,,,,,,,,,,,,,,,,,,,,,,,,,,,,,,,,,,,,,,,,,,,,,,,,,,,,,,,,,,,,,,,,,,2026-01-20_12h28.15.749,,,,,,,,87.8323593325913,87.84172062482685,88.32556995749474,,,,,88.37268695794046,,,,,,,,,,,,,,,,,543211,1,Right,1,2026-01-20_12h28.15.749,EmoNback_Behavioral,,2025.1.1,90.6335517944242,2026-01-20 12h28.33.007337 -0600,
9,9,0,10,1,VM Stimuli/BF06_FO.bmp,nonlure,nontarget,NegFace,2-Back,None,0,,2,0,2,0,0,9,9,9,88.37268695794046,,,,,,,,,,,,,,,,,,,,,,,,,,,,,,,,,,,,,,,,,,,,,,,,,,,,,,,,,,,,,,88.32656233292073,,88.32660875003785,88.35526337474585,88.35531541705132,88.35996545758098,88.37268695794046,88.37268695794046,88.37268695794046,88.37268695794046,90.35954262502491,None,0,2,NA,NA,NA,2026-01-20_12h28.15.749,12:30:03,1,1,2,10,VM Stimuli/BF06_FO.bmp,NegFace,,,,,,,,,,,,,,,,,,,,,,,,,543211,1,Right,1,2026-01-20_12h28.15.749,EmoNback_Behavioral,,2025.1.1,90.6335517944242,2026-01-20 12h28.33.007337 -0600,
9,9,0,10,1,VM Stimuli/BF06_FO.bmp,nonlure,nontarget,NegFace,2-Back,None,0,,2,0,2,0,0,9,9,9,,,,,,,,,,,,,,,,,,,,,,,,,,,,,,,,,,,,,,,,,,,,,,,,,,,,,,,,,,,,,,,,,,,,,,,,,,,,,,,,2026-01-20_12h28.15.749,,,,,,,,90.36015966627747,90.37070454191417,90.85852004215121,,,,,,,,,,,,,,,,,,,,,,543211,1,Right,1,2026-01-20_12h28.15.749,EmoNback_Behavioral,,2025.1.1,90.6335517944242,2026-01-20 12h28.33.007337 -0600,
0,0,0,1,1,VM Stimuli/34M_HO.bmp,target,Target,PosFace,0-Back,None,0,VM Stimuli/34M_HO.bmp,3,0,3,0,0,0,0,0,91.40635049995035,,,,,,,,,,,,,,,,,,,,,,,,,,,,,,,,,,,,,,,,,,,,,,,,,,,,,,,,,,,90.88016137480736,90.89106108248234,91.3753744168207,91.3849437078461,,91.38498479127884,91.3950289580971,93.87041083257645,93.87479945737869,93.88900049962103,93.88900049962103,93.88900049962103,93.88900049962103,95.87776066642255,None,0,1,NA,NA,NA,2026-01-20_12h28.15.749,12:30:08,1,1,3,1,VM Stimuli/34M_HO.bmp,PosFace,,,,95.88771108258516,95.88771108258516,95.88771108258516,95.88771108258516,,90.86293599940836,90.8630167497322,91.40635049995035,91.40635049995035,91.40635049995035,,,,,,,,,,,,543211,1,Right,1,2026-01-20_12h28.15.749,EmoNback_Behavioral,,2025.1.1,90.6335517944242,2026-01-20 12h28.33.007337 -0600,
0,0,0,1,1,VM Stimuli/34M_HO.bmp,target,Target,PosFace,0-Back,None,0,VM Stimuli/34M_HO.bmp,3,0,3,0,0,0,0,0,,,,,,,,,,,,,,,,,,,,,,,,,,,,,,,,,,,,,,,,,,,,,,,,,,,,,,,,,,,,,,,,,,,,,,,,,,,,,,,,2026-01-20_12h28.15.749,,,,,,,,95.87839458230883,95.88771108258516,96.37737716641277,,,,,96.40166945755482,,,,,,,,,,,,,,,,,543211,1,Right,1,2026-01-20_12h28.15.749,EmoNback_Behavioral,,2025.1.1,90.6335517944242,2026-01-20 12h28.33.007337 -0600,
1,1,0,2,1,VM Stimuli/BM08_HO.bmp,nonlure,nontarget,PosFace,0-Back,None,0,VM Stimuli/34M_HO.bmp,3,0,3,0,0,1,1,1,96.40166945755482,,,,,,,,,,,,,,,,,,,,,,,,,,,,,,,,,,,,,,,,,,,,,,,,,,,,,,,,,,,,,,96.3783245831728,,96.37836712505668,96.38141174986959,96.3814715417102,96.38715074956417,96.40166945755482,96.40166945755482,96.40166945755482,96.40166945755482,98.38864691648632,None,0,2,NA,NA,NA,2026-01-20_12h28.15.749,12:30:11,1,1,3,2,VM Stimuli/BM08_HO.bmp,PosFace,,,,,,,,,,,,,,,,,,,,,,,,,543211,1,Right,1,2026-01-20_12h28.15.749,EmoNback_Behavioral,,2025.1.1,90.6335517944242,2026-01-20 12h28.33.007337 -0600,
1,1,0,2,1,VM Stimuli/BM08_HO.bmp,nonlure,nontarget,PosFace,0-Back,None,0,VM Stimuli/34M_HO.bmp,3,0,3,0,0,1,1,1,,,,,,,,,,,,,,,,,,,,,,,,,,,,,,,,,,,,,,,,,,,,,,,,,,,,,,,,,,,,,,,,,,,,,,,,,,,,,,,,2026-01-20_12h28.15.749,,,,,,,,98.38952683284879,98.39977570809424,98.88636179175228,,,,,,,,,,,,,,,,,,,,,,543211,1,Right,1,2026-01-20_12h28.15.749,EmoNback_Behavioral,,2025.1.1,90.6335517944242,2026-01-20 12h28.33.007337 -0600,
2,2,0,3,1,VM Stimuli/HF04_HO.bmp,nonlure,nontarget,PosFace,0-Back,None,0,VM Stimuli/34M_HO.bmp,3,0,3,0,0,2,2,2,98.90987812448293,,,,,,,,,,,,,,,,,,,,,,,,,,,,,,,,,,,,,,,,,,,,,,,,,,,,,,,,,,,,,,98.88736183289438,,98.88740662485361,98.89056066703051,98.8906295420602,98.89548704214394,98.90987812448293,98.90987812448293,98.90987812448293,98.90987812448293,100.89301466662437,None,0,2,NA,NA,NA,2026-01-20_12h28.15.749,12:30:13,1,1,3,3,VM Stimuli/HF04_HO.bmp,PosFace,,,,,,,,,,,,,,,,,,,,,,,,,543211,1,Right,1,2026-01-20_12h28.15.749,EmoNback_Behavioral,,2025.1.1,90.6335517944242,2026-01-20 12h28.33.007337 -0600,
2,2,0,3,1,VM Stimuli/HF04_HO.bmp,nonlure,nontarget,PosFace,0-Back,None,0,VM Stimuli/34M_HO.bmp,3,0,3,0,0,2,2,2,,,,,,,,,,,,,,,,,,,,,,,,,,,,,,,,,,,,,,,,,,,,,,,,,,,,,,,,,,,,,,,,,,,,,,,,,,,,,,,,2026-01-20_12h28.15.749,,,,,,,,100.89372112508863,100.9042350826785,101.39174670819193,,,,,,,,,,,,,,,,,,,,,,543211,1,Right,1,2026-01-20_12h28.15.749,EmoNback_Behavioral,,2025.1.1,90.6335517944242,2026-01-20 12h28.33.007337 -0600,
3,3,0,4,1,VM Stimuli/BF002_HO.bmp,nonlure,nontarget,PosFace,0-Back,None,0,VM Stimuli/34M_HO.bmp,3,0,3,0,0,3,3,3,101.415981374681,,,,,,,,,,,,,,,,,,,,,,,,,,,,,,,,,,,,,,,,,,,,,,,,,,,,,,,,,,,,,,101.3927415823564,,101.39278687443584,101.39586762432009,101.39592474978417,101.4013308743015,101.415981374681,101.415981374681,101.415981374681,101.415981374681,103.40434983279556,None,0,2,NA,NA,NA,2026-01-20_12h28.15.749,12:30:16,1,1,3,4,VM Stimuli/BF002_HO.bmp,PosFace,,,,,,,,,,,,,,,,,,,,,,,,,543211,1,Right,1,2026-01-20_12h28.15.749,EmoNback_Behavioral,,2025.1.1,90.6335517944242,2026-01-20 12h28.33.007337 -0600,
3,3,0,4,1,VM Stimuli/BF002_HO.bmp,nonlure,nontarget,PosFace,0-Back,None,0,VM Stimuli/34M_HO.bmp,3,0,3,0,0,3,3,3,,,,,,,,,,,,,,,,,,,,,,,,,,,,,,,,,,,,,,,,,,,,,,,,,,,,,,,,,,,,,,,,,,,,,,,,,,,,,,,,2026-01-20_12h28.15.749,,,,,,,,103.40498908236623,103.41470654215664,103.90319462493062,,,,,,,,,,,,,,,,,,,,,,543211,1,Right,1,2026-01-20_12h28.15.749,EmoNback_Behavioral,,2025.1.1,90.6335517944242,2026-01-20 12h28.33.007337 -0600,
4,4,0,5,1,VM Stimuli/BM08_HO.bmp,lure,nontarget,PosFace,0-Back,None,0,VM Stimuli/34M_HO.bmp,3,0,3,0,0,4,4,4,103.92915754206479,,,,,,,,,,,,,,,,,,,,,,,,,,,,,,,,,,,,,,,,,,,,,,,,,,,,,,,,,,,,,,103.90422516688704,,103.90427283290774,103.9077447494492,103.90779766719788,103.91451295744628,103.92915754206479,103.92915754206479,103.92915754206479,103.92915754206479,105.92086420767009,None,0,2,NA,NA,NA,2026-01-20_12h28.15.749,12:30:18,1,1,3,5,VM Stimuli/BM08_HO.bmp,PosFace,,,,,,,,,,,,,,,,,,,,,,,,,543211,1,Right,1,2026-01-20_12h28.15.749,EmoNback_Behavioral,,2025.1.1,90.6335517944242,2026-01-20 12h28.33.007337 -0600,
4,4,0,5,1,VM Stimuli/BM08_HO.bmp,lure,nontarget,PosFace,0-Back,None,0,VM Stimuli/34M_HO.bmp,3,0,3,0,0,4,4,4,,,,,,,,,,,,,,,,,,,,,,,,,,,,,,,,,,,,,,,,,,,,,,,,,,,,,,,,,,,,,,,,,,,,,,,,,,,,,,,,2026-01-20_12h28.15.749,,,,,,,,105.92162333242595,105.93212141655385,106.41676145792007,,,,,,,,,,,,,,,,,,,,,,543211,1,Right,1,2026-01-20_12h28.15.749,EmoNback_Behavioral,,2025.1.1,90.6335517944242,2026-01-20 12h28.33.007337 -0600,
5,5,0,6,1,VM Stimuli/45M_HO.bmp,nonlure,nontarget,PosFace,0-Back,None,0,VM Stimuli/34M_HO.bmp,3,0,3,0,0,5,5,5,106.44004887435585,,,,,,,,,,,,,,,,,,,,,,,,,,,,,,,,,,,,,,,,,,,,,,,,,,,,,,,,,,,,,,106.41772116627544,,106.41776537429541,106.42138799931854,106.42144516669214,106.42567187454551,106.44004887435585,106.44004887435585,106.44004887435585,106.44004887435585,108.4314125822857,None,0,2,NA,NA,NA,2026-01-20_12h28.15.749,12:30:21,1,1,3,6,VM Stimuli/45M_HO.bmp,PosFace,,,,,,,,,,,,,,,,,,,,,,,,,543211,1,Right,1,2026-01-20_12h28.15.749,EmoNback_Behavioral,,2025.1.1,90.6335517944242,2026-01-20 12h28.33.007337 -0600,
5,5,0,6,1,VM Stimuli/45M_HO.bmp,nonlure,nontarget,PosFace,0-Back,None,0,VM Stimuli/34M_HO.bmp,3,0,3,0,0,5,5,5,,,,,,,,,,,,,,,,,,,,,,,,,,,,,,,,,,,,,,,,,,,,,,,,,,,,,,,,,,,,,,,,,,,,,,,,,,,,,,,,2026-01-20_12h28.15.749,,,,,,,,108.43199012428522,108.44145999941975,108.92720124963671,,,,,,,,,,,,,,,,,,,,,,543211,1,Right,1,2026-01-20_12h28.15.749,EmoNback_Behavioral,,2025.1.1,90.6335517944242,2026-01-20 12h28.33.007337 -0600,
6,6,0,7,1,VM Stimuli/45M_HO.bmp,lure,nontarget,PosFace,0-Back,None,0,VM Stimuli/34M_HO.bmp,3,0,3,0,0,6,6,6,108.94893666636199,,,,,,,,,,,,,,,,,,,,,,,,,,,,,,,,,,,,,,,,,,,,,,,,,,,,,,,,,,,,,,108.92814008239657,,108.92818524967879,108.93126341700554,108.93132124934345,108.93447366636246,108.94893666636199,108.94893666636199,108.94893666636199,108.94893666636199,110.93731124978513,None,0,2,NA,NA,NA,2026-01-20_12h28.15.749,12:30:23,1,1,3,7,VM Stimuli/45M_HO.bmp,PosFace,,,,,,,,,,,,,,,,,,,,,,,,,543211,1,Right,1,2026-01-20_12h28.15.749,EmoNback_Behavioral,,2025.1.1,90.6335517944242,2026-01-20 12h28.33.007337 -0600,
6,6,0,7,1,VM Stimuli/45M_HO.bmp,lure,nontarget,PosFace,0-Back,None,0,VM Stimuli/34M_HO.bmp,3,0,3,0,0,6,6,6,,,,,,,,,,,,,,,,,,,,,,,,,,,,,,,,,,,,,,,,,,,,,,,,,,,,,,,,,,,,,,,,,,,,,,,,,,,,,,,,2026-01-20_12h28.15.749,,,,,,,,110.93796249944717,110.94829870760441,111.43169774953276,,,,,,,,,,,,,,,,,,,,,,543211,1,Right,1,2026-01-20_12h28.15.749,EmoNback_Behavioral,,2025.1.1,90.6335517944242,2026-01-20 12h28.33.007337 -0600,
7,7,0,8,1,VM Stimuli/BF002_HO.bmp,lure,nontarget,PosFace,0-Back,None,0,VM Stimuli/34M_HO.bmp,3,0,3,0,0,7,7,7,111.45551529154181,,,,,,,,,,,,,,,,,,,,,,,,,,,,,,,,,,,,,,,,,,,,,,,,,,,,,,,,,,,,,,111.4326485414058,,111.43269358295947,111.43586291652173,111.43592029158026,111.44098612479866,111.45551529154181,111.45551529154181,111.45551529154181,111.45551529154181,113.43734879139811,None,0,2,NA,NA,NA,2026-01-20_12h28.15.749,12:30:26,1,1,3,8,VM Stimuli/BF002_HO.bmp,PosFace,,,,,,,,,,,,,,,,,,,,,,,,,543211,1,Right,1,2026-01-20_12h28.15.749,EmoNback_Behavioral,,2025.1.1,90.6335517944242,2026-01-20 12h28.33.007337 -0600,
7,7,0,8,1,VM Stimuli/BF002_HO.bmp,lure,nontarget,PosFace,0-Back,None,0,VM Stimuli/34M_HO.bmp,3,0,3,0,0,7,7,7,,,,,,,,,,,,,,,,,,,,,,,,,,,,,,,,,,,,,,,,,,,,,,,,,,,,,,,,,,,,,,,,,,,,,,,,,,,,,,,,2026-01-20_12h28.15.749,,,,,,,,113.4381226664409,113.44887504167855,113.93647279217839,,,,,,,,,,,,,,,,,,,,,,543211,1,Right,1,2026-01-20_12h28.15.749,EmoNback_Behavioral,,2025.1.1,90.6335517944242,2026-01-20 12h28.33.007337 -0600,
8,8,0,9,1,VM Stimuli/34M_HO.bmp,target,Target,PosFace,0-Back,None,0,VM Stimuli/34M_HO.bmp,3,0,3,0,0,8,8,8,113.95844412501901,,,,,,,,,,,,,,,,,,,,,,,,,,,,,,,,,,,,,,,,,,,,,,,,,,,,,,,,,,,,,,113.9374523749575,,113.93749683257192,113.94063520804048,113.9407009165734,113.9436787078157,113.95844412501901,113.95844412501901,113.95844412501901,113.95844412501901,115.9417284578085,None,0,1,NA,NA,NA,2026-01-20_12h28.15.749,12:30:28,1,1,3,9,VM Stimuli/34M_HO.bmp,PosFace,,,,,,,,,,,,,,,,,,,,,,,,,543211,1,Right,1,2026-01-20_12h28.15.749,EmoNback_Behavioral,,2025.1.1,90.6335517944242,2026-01-20 12h28.33.007337 -0600,
8,8,0,9,1,VM Stimuli/34M_HO.bmp,target,Target,PosFace,0-Back,None,0,VM Stimuli/34M_HO.bmp,3,0,3,0,0,8,8,8,,,,,,,,,,,,,,,,,,,,,,,,,,,,,,,,,,,,,,,,,,,,,,,,,,,,,,,,,,,,,,,,,,,,,,,,,,,,,,,,2026-01-20_12h28.15.749,,,,,,,,115.94249658286572,115.95393845811486,116.43768083304167,,,,,116.46135391667485,,,,,,,,,,,,,,,,,543211,1,Right,1,2026-01-20_12h28.15.749,EmoNback_Behavioral,,2025.1.1,90.6335517944242,2026-01-20 12h28.33.007337 -0600,
9,9,0,10,1,VM Stimuli/WF07_HO.bmp,nonlure,nontarget,PosFace,0-Back,None,0,VM Stimuli/34M_HO.bmp,3,0,3,0,0,9,9,9,116.46135391667485,,,,,,,,,,,,,,,,,,,,,,,,,,,,,,,,,,,,,,,,,,,,,,,,,,,,,,,,,,,,,,116.43862612452358,,116.43866904173046,116.44180508237332,116.44186333287507,116.44696829188615,116.46135391667485,116.46135391667485,116.46135391667485,116.46135391667485,118.44211324956268,None,0,2,NA,NA,NA,2026-01-20_12h28.15.749,12:30:31,1,1,3,10,VM Stimuli/WF07_HO.bmp,PosFace,,,,,,,,,,,,,,,,,,,,,,,,,543211,1,Right,1,2026-01-20_12h28.15.749,EmoNback_Behavioral,,2025.1.1,90.6335517944242,2026-01-20 12h28.33.007337 -0600,
9,9,0,10,1,VM Stimuli/WF07_HO.bmp,nonlure,nontarget,PosFace,0-Back,None,0,VM Stimuli/34M_HO.bmp,3,0,3,0,0,9,9,9,,,,,,,,,,,,,,,,,,,,,,,,,,,,,,,,,,,,,,,,,,,,,,,,,,,,,,,,,,,,,,,,,,,,,,,,,,,,,,,,2026-01-20_12h28.15.749,,,,,,,,118.44277483318001,118.45310512464494,118.94470345787704,,,,,,,,,,,,,,,,,,,,,,543211,1,Right,1,2026-01-20_12h28.15.749,EmoNback_Behavioral,,2025.1.1,90.6335517944242,2026-01-20 12h28.33.007337 -0600,
0,0,0,1,1,VM Stimuli/PL_003_92016.bmp,nonlure,nontarget,Place,0-Back,None,0,VM Stimuli/PL_001_92012.bmp,4,0,4,0,0,0,0,0,119.48866804130375,,,,,,,,,,,,,,,,,,,,,,,,,,,,,,,,,,,,,,,,,,,,,,,,,,,,,,,,,,,118.95947154145688,118.97034533228725,119.46093654166907,119.47125970758498,,119.47131254151464,119.47677904181182,121.9596392493695,121.9658833751455,121.98162999935448,121.98162999935448,121.98162999935448,121.98162999935448,123.97073441650718,None,0,2,NA,NA,NA,2026-01-20_12h28.15.749,12:30:36,1,1,4,1,VM Stimuli/PL_003_92016.bmp,Place,,,,123.98123874980956,123.98123874980956,123.98123874980956,123.98123874980956,,118.94823949970305,118.94832020811737,119.48866804130375,119.48866804130375,,,,,,,,,,,,,543211,1,Right,1,2026-01-20_12h28.15.749,EmoNback_Behavioral,,2025.1.1,90.6335517944242,2026-01-20 12h28.33.007337 -0600,
0,0,0,1,1,VM Stimuli/PL_003_92016.bmp,nonlure,nontarget,Place,0-Back,None,0,VM Stimuli/PL_001_92012.bmp,4,0,4,0,0,0,0,0,,,,,,,,,,,,,,,,,,,,,,,,,,,,,,,,,,,,,,,,,,,,,,,,,,,,,,,,,,,,,,,,,,,,,,,,,,,,,,,,2026-01-20_12h28.15.749,,,,,,,,123.97135549969971,123.98123874980956,124.47074049990624,,,,,124.49306316673756,,,,,,,,,,,,,,,,,543211,1,Right,1,2026-01-20_12h28.15.749,EmoNback_Behavioral,,2025.1.1,90.6335517944242,2026-01-20 12h28.33.007337 -0600,
1,1,0,2,1,VM Stimuli/PL_003_92016.bmp,lure,nontarget,Place,0-Back,None,0,VM Stimuli/PL_001_92012.bmp,4,0,4,0,0,1,1,1,124.49306316673756,,,,,,,,,,,,,,,,,,,,,,,,,,,,,,,,,,,,,,,,,,,,,,,,,,,,,,,,,,,,,,124.47180562466383,,124.47184987459332,124.47517212480307,124.47523199953139,124.47863033227623,124.49306316673756,124.49306316673756,124.49306316673756,124.49306316673756,126.48624025005847,None,0,2,NA,NA,NA,2026-01-20_12h28.15.749,12:30:39,1,1,4,2,VM Stimuli/PL_003_92016.bmp,Place,,,,,,,,,,,,,,,,,,,,,,,,,543211,1,Right,1,2026-01-20_12h28.15.749,EmoNback_Behavioral,,2025.1.1,90.6335517944242,2026-01-20 12h28.33.007337 -0600,
1,1,0,2,1,VM Stimuli/PL_003_92016.bmp,lure,nontarget,Place,0-Back,None,0,VM Stimuli/PL_001_92012.bmp,4,0,4,0,0,1,1,1,,,,,,,,,,,,,,,,,,,,,,,,,,,,,,,,,,,,,,,,,,,,,,,,,,,,,,,,,,,,,,,,,,,,,,,,,,,,,,,,2026-01-20_12h28.15.749,,,,,,,,126.48681754153222,126.49981220811605,126.97772541642189,,,,,,,,,,,,,,,,,,,,,,543211,1,Right,1,2026-01-20_12h28.15.749,EmoNback_Behavioral,,2025.1.1,90.6335517944242,2026-01-20 12h28.33.007337 -0600,
2,2,0,3,1,VM Stimuli/PL_006_92025.bmp,nonlure,nontarget,Place,0-Back,None,0,VM Stimuli/PL_001_92012.bmp,4,0,4,0,0,2,2,2,127.00292870774865,,,,,,,,,,,,,,,,,,,,,,,,,,,,,,,,,,,,,,,,,,,,,,,,,,,,,,,,,,,,,,126.9789619576186,,126.97901824954897,126.98257558234036,126.98264608252794,126.98793483246118,127.00292870774865,127.00292870774865,127.00292870774865,127.00292870774865,128.98753974959254,None,0,2,NA,NA,NA,2026-01-20_12h28.15.749,12:30:41,1,1,4,3,VM Stimuli/PL_006_92025.bmp,Place,,,,,,,,,,,,,,,,,,,,,,,,,543211,1,Right,1,2026-01-20_12h28.15.749,EmoNback_Behavioral,,2025.1.1,90.6335517944242,2026-01-20 12h28.33.007337 -0600,
2,2,0,3,1,VM Stimuli/PL_006_92025.bmp,nonlure,nontarget,Place,0-Back,None,0,VM Stimuli/PL_001_92012.bmp,4,0,4,0,0,2,2,2,,,,,,,,,,,,,,,,,,,,,,,,,,,,,,,,,,,,,,,,,,,,,,,,,,,,,,,,,,,,,,,,,,,,,,,,,,,,,,,,2026-01-20_12h28.15.749,,,,,,,,128.98898054193705,128.99860970769078,129.48134779185057,,,,,129.50883283279836,,,,,,,,,,,,,,,,,543211,1,Right,1,2026-01-20_12h28.15.749,EmoNback_Behavioral,,2025.1.1,90.6335517944242,2026-01-20 12h28.33.007337 -0600,
3,3,0,4,1,VM Stimuli/PL_001_92012.bmp,target,Target,Place,0-Back,None,0,VM Stimuli/PL_001_92012.bmp,4,0,4,0,0,3,3,3,129.50883283279836,,,,,,,,,,,,,,,,,,,,,,,,,,,,,,,,,,,,,,,,,,,,,,,,,,,,,,,,,,,,,,129.482781666331,,129.48282624967396,129.48908249940723,129.48914429172873,129.4941949993372,129.50883283279836,129.50883283279836,129.50883283279836,129.50883283279836,131.49238962493837,None,0,1,NA,NA,NA,2026-01-20_12h28.15.749,12:30:44,1,1,4,4,VM Stimuli/PL_001_92012.bmp,Place,,,,,,,,,,,,,,,,,,,,,,,,,543211,1,Right,1,2026-01-20_12h28.15.749,EmoNback_Behavioral,,2025.1.1,90.6335517944242,2026-01-20 12h28.33.007337 -0600,
3,3,0,4,1,VM Stimuli/PL_001_92012.bmp,target,Target,Place,0-Back,None,0,VM Stimuli/PL_001_92012.bmp,4,0,4,0,0,3,3,3,,,,,,,,,,,,,,,,,,,,,,,,,,,,,,,,,,,,,,,,,,,,,,,,,,,,,,,,,,,,,,,,,,,,,,,,,,,,,,,,2026-01-20_12h28.15.749,,,,,,,,131.4930839575827,131.5036276243627,131.99339445773512,,,,,,,,,,,,,,,,,,,,,,543211,1,Right,1,2026-01-20_12h28.15.749,EmoNback_Behavioral,,2025.1.1,90.6335517944242,2026-01-20 12h28.33.007337 -0600,
4,4,0,5,1,VM Stimuli/PL_004_92023.bmp,nonlure,nontarget,Place,0-Back,None,0,VM Stimuli/PL_001_92012.bmp,4,0,4,0,0,4,4,4,132.01941058319062,,,,,,,,,,,,,,,,,,,,,,,,,,,,,,,,,,,,,,,,,,,,,,,,,,,,,,,,,,,,,,131.99438154138625,,131.99442591704428,131.99766408279538,131.99772174935788,132.0049521671608,132.01941058319062,132.01941058319062,132.01941058319062,132.01941058319062,134.00315812509507,None,0,2,NA,NA,NA,2026-01-20_12h28.15.749,12:30:46,1,1,4,5,VM Stimuli/PL_004_92023.bmp,Place,,,,,,,,,,,,,,,,,,,,,,,,,543211,1,Right,1,2026-01-20_12h28.15.749,EmoNback_Behavioral,,2025.1.1,90.6335517944242,2026-01-20 12h28.33.007337 -0600,
4,4,0,5,1,VM Stimuli/PL_004_92023.bmp,nonlure,nontarget,Place,0-Back,None,0,VM Stimuli/PL_001_92012.bmp,4,0,4,0,0,4,4,4,,,,,,,,,,,,,,,,,,,,,,,,,,,,,,,,,,,,,,,,,,,,,,,,,,,,,,,,,,,,,,,,,,,,,,,,,,,,,,,,2026-01-20_12h28.15.749,,,,,,,,134.00384420808405,134.01414133235812,134.49985766690224,,,,,,,,,,,,,,,,,,,,,,543211,1,Right,1,2026-01-20_12h28.15.749,EmoNback_Behavioral,,2025.1.1,90.6335517944242,2026-01-20 12h28.33.007337 -0600,
5,5,0,6,1,VM Stimuli/PL_005_92024.bmp,nonlure,nontarget,Place,0-Back,None,0,VM Stimuli/PL_001_92012.bmp,4,0,4,0,0,5,5,5,134.52404791675508,,,,,,,,,,,,,,,,,,,,,,,,,,,,,,,,,,,,,,,,,,,,,,,,,,,,,,,,,,,,,,134.50090033281595,,134.50094541627914,134.50407533254474,134.50413408316672,134.50966054201126,134.52404791675508,134.52404791675508,134.52404791675508,134.52404791675508,136.50459854211658,None,0,2,NA,NA,NA,2026-01-20_12h28.15.749,12:30:49,1,1,4,6,VM Stimuli/PL_005_92024.bmp,Place,,,,,,,,,,,,,,,,,,,,,,,,,543211,1,Right,1,2026-01-20_12h28.15.749,EmoNback_Behavioral,,2025.1.1,90.6335517944242,2026-01-20 12h28.33.007337 -0600,
5,5,0,6,1,VM Stimuli/PL_005_92024.bmp,nonlure,nontarget,Place,0-Back,None,0,VM Stimuli/PL_001_92012.bmp,4,0,4,0,0,5,5,5,,,,,,,,,,,,,,,,,,,,,,,,,,,,,,,,,,,,,,,,,,,,,,,,,,,,,,,,,,,,,,,,,,,,,,,,,,,,,,,,2026-01-20_12h28.15.749,,,,,,,,136.50542204175144,136.51614366658032,137.00260645803064,,,,,137.02478120755404,,,,,,,,,,,,,,,,,543211,1,Right,1,2026-01-20_12h28.15.749,EmoNback_Behavioral,,2025.1.1,90.6335517944242,2026-01-20 12h28.33.007337 -0600,
6,6,0,7,1,VM Stimuli/PL_001_92012.bmp,target,Target,Place,0-Back,None,0,VM Stimuli/PL_001_92012.bmp,4,0,4,0,0,6,6,6,137.02478120755404,,,,,,,,,,,,,,,,,,,,,,,,,,,,,,,,,,,,,,,,,,,,,,,,,,,,,,,,,,,,,,137.0036354996264,,137.00367995817214,137.00646095816046,137.006517582573,137.01059241686016,137.02478120755404,137.02478120755404,137.02478120755404,137.02478120755404,139.01034029200673,None,0,1,NA,NA,NA,2026-01-20_12h28.15.749,12:30:52,1,1,4,7,VM Stimuli/PL_001_92012.bmp,Place,,,,,,,,,,,,,,,,,,,,,,,,,543211,1,Right,1,2026-01-20_12h28.15.749,EmoNback_Behavioral,,2025.1.1,90.6335517944242,2026-01-20 12h28.33.007337 -0600,
6,6,0,7,1,VM Stimuli/PL_001_92012.bmp,target,Target,Place,0-Back,None,0,VM Stimuli/PL_001_92012.bmp,4,0,4,0,0,6,6,6,,,,,,,,,,,,,,,,,,,,,,,,,,,,,,,,,,,,,,,,,,,,,,,,,,,,,,,,,,,,,,,,,,,,,,,,,,,,,,,,2026-01-20_12h28.15.749,,,,,,,,139.0110751669854,139.02125641703606,139.5056116245687,,,,,139.5323946243152,,,,,,,,,,,,,,,,,543211,1,Right,1,2026-01-20_12h28.15.749,EmoNback_Behavioral,,2025.1.1,90.6335517944242,2026-01-20 12h28.33.007337 -0600,
7,7,0,8,1,VM Stimuli/PL_002_92014.bmp,nonlure,nontarget,Place,0-Back,None,0,VM Stimuli/PL_001_92012.bmp,4,0,4,0,0,7,7,7,139.5323946243152,,,,,,,,,,,,,,,,,,,,,,,,,,,,,,,,,,,,,,,,,,,,,,,,,,,,,,,,,,,,,,139.5068037500605,,139.50684874970466,139.511348166503,139.51140745729208,139.51758058276027,139.5323946243152,139.5323946243152,139.5323946243152,139.5323946243152,141.5162339163944,None,0,2,NA,NA,NA,2026-01-20_12h28.15.749,12:30:54,1,1,4,8,VM Stimuli/PL_002_92014.bmp,Place,,,,,,,,,,,,,,,,,,,,,,,,,543211,1,Right,1,2026-01-20_12h28.15.749,EmoNback_Behavioral,,2025.1.1,90.6335517944242,2026-01-20 12h28.33.007337 -0600,
7,7,0,8,1,VM Stimuli/PL_002_92014.bmp,nonlure,nontarget,Place,0-Back,None,0,VM Stimuli/PL_001_92012.bmp,4,0,4,0,0,7,7,7,,,,,,,,,,,,,,,,,,,,,,,,,,,,,,,,,,,,,,,,,,,,,,,,,,,,,,,,,,,,,,,,,,,,,,,,,,,,,,,,2026-01-20_12h28.15.749,,,,,,,,141.51668566651642,141.52611916698515,142.01616633310914,,,,,,,,,,,,,,,,,,,,,,543211,1,Right,1,2026-01-20_12h28.15.749,EmoNback_Behavioral,,2025.1.1,90.6335517944242,2026-01-20 12h28.33.007337 -0600,
8,8,0,9,1,VM Stimuli/PL_004_92023.bmp,lure,nontarget,Place,0-Back,None,0,VM Stimuli/PL_001_92012.bmp,4,0,4,0,0,8,8,8,142.03848745767027,,,,,,,,,,,,,,,,,,,,,,,,,,,,,,,,,,,,,,,,,,,,,,,,,,,,,,,,,,,,,,142.01697479188442,,142.01701845787466,142.0199043750763,142.0199628751725,142.02461583260447,142.03848745767027,142.03848745767027,142.03848745767027,142.03848745767027,144.02607479132712,None,0,2,NA,NA,NA,2026-01-20_12h28.15.749,12:30:57,1,1,4,9,VM Stimuli/PL_004_92023.bmp,Place,,,,,,,,,,,,,,,,,,,,,,,,,543211,1,Right,1,2026-01-20_12h28.15.749,EmoNback_Behavioral,,2025.1.1,90.6335517944242,2026-01-20 12h28.33.007337 -0600,
8,8,0,9,1,VM Stimuli/PL_004_92023.bmp,lure,nontarget,Place,0-Back,None,0,VM Stimuli/PL_001_92012.bmp,4,0,4,0,0,8,8,8,,,,,,,,,,,,,,,,,,,,,,,,,,,,,,,,,,,,,,,,,,,,,,,,,,,,,,,,,,,,,,,,,,,,,,,,,,,,,,,,2026-01-20_12h28.15.749,,,,,,,,144.02669866662472,144.03722291719168,144.52585758268833,,,,,,,,,,,,,,,,,,,,,,543211,1,Right,1,2026-01-20_12h28.15.749,EmoNback_Behavioral,,2025.1.1,90.6335517944242,2026-01-20 12h28.33.007337 -0600,
9,9,0,10,1,VM Stimuli/PL_006_92025.bmp,lure,nontarget,Place,0-Back,None,0,VM Stimuli/PL_001_92012.bmp,4,0,4,0,0,9,9,9,144.54334045760334,,,,,,,,,,,,,,,,,,,,,,,,,,,,,,,,,,,,,,,,,,,,,,,,,,,,,,,,,,,,,,144.52665583230555,,144.52668208256364,144.5285607073456,144.52859870810062,144.53141012508422,144.54334045760334,144.54334045760334,144.54334045760334,144.54334045760334,146.52767699956894,None,0,2,NA,NA,NA,2026-01-20_12h28.15.749,12:30:59,1,1,4,10,VM Stimuli/PL_006_92025.bmp,Place,,,,146.53813470806926,146.53813470806926,146.53813470806926,146.53813470806926,,,,,,,,,,,,,,,,,,543211,1,Right,1,2026-01-20_12h28.15.749,EmoNback_Behavioral,,2025.1.1,90.6335517944242,2026-01-20 12h28.33.007337 -0600,
9,9,0,10,1,VM Stimuli/PL_006_92025.bmp,lure,nontarget,Place,0-Back,None,0,VM Stimuli/PL_001_92012.bmp,4,0,4,0,0,9,9,9,,,,,,,,,,,,,,,,,,,,,,,,,,,,,,,,,,,,,,,,,,,,,,,,,,,,,,,,,,,,,,,,,,,,,,,,,,,,,,,,2026-01-20_12h28.15.749,,,,,,,,146.52831520792097,146.53813470806926,147.0308886244893,,,,,,,,,,,,,,,,,,,,,,543211,1,Right,1,2026-01-20_12h28.15.749,EmoNback_Behavioral,,2025.1.1,90.6335517944242,2026-01-20 12h28.33.007337 -0600,
0,0,0,1,1,VM Stimuli/AM228_NC.bmp,nonlure,nontarget,NeutFace,2-Back,None,0,,5,0,5,0,0,0,0,0,147.56615799944848,,,,,,,,,,,,,,,,,,,,,,,,,,,,,,,,,,,,,,,,,,,,,,,,,,,,,,,,,,,147.04455808270723,147.05578758288175,147.54493466671556,147.55457008257508,147.56615799944848,150.03093924932182,150.08825608249754,150.08830508310348,150.0916849579662,150.10349491704255,150.10349491704255,150.10349491704255,150.10349491704255,152.08676895778626,None,0,2,NA,NA,NA,2026-01-20_12h28.15.749,12:31:05,1,1,5,1,VM Stimuli/AM228_NC.bmp,NeutFace,,,,152.09722908306867,152.09722908306867,152.09722908306867,152.09722908306867,,147.0341107500717,147.03419400006533,,,,,,,,,,,,,,,543211,1,Right,1,2026-01-20_12h28.15.749,EmoNback_Behavioral,,2025.1.1,90.6335517944242,2026-01-20 12h28.33.007337 -0600,
0,0,0,1,1,VM Stimuli/AM228_NC.bmp,nonlure,nontarget,NeutFace,2-Back,None,0,,5,0,5,0,0,0,0,0,,,,,,,,,,,,,,,,,,,,,,,,,,,,,,,,,,,,,,,,,,,,,,,,,,,,,,,,,,,,,,,,,,,,,,,,,,,,,,,,2026-01-20_12h28.15.749,,,,,,,,152.08740741666406,152.09722908306867,152.58321416657418,,,,,152.6471961243078,,,,,,,,,,,,,,,,,543211,1,Right,1,2026-01-20_12h28.15.749,EmoNback_Behavioral,,2025.1.1,90.6335517944242,2026-01-20 12h28.33.007337 -0600,
1,1,0,2,1,VM Stimuli/26M_NC.bmp,nonlure,nontarget,NeutFace,2-Back,None,0,,5,0,5,0,0,1,1,1,152.6471961243078,,,,,,,,,,,,,,,,,,,,,,,,,,,,,,,,,,,,,,,,,,,,,,,,,,,,,,,,,,,,,,152.58420733269304,,152.58424737490714,152.62990299984813,152.62995316646993,152.63402129150927,152.6471961243078,152.6471961243078,152.6471961243078,152.6471961243078,154.63709199987352,None,0,2,NA,NA,NA,2026-01-20_12h28.15.749,12:31:07,1,1,5,2,VM Stimuli/26M_NC.bmp,NeutFace,,,,,,,,,,,,,,,,,,,,,,,,,543211,1,Right,1,2026-01-20_12h28.15.749,EmoNback_Behavioral,,2025.1.1,90.6335517944242,2026-01-20 12h28.33.007337 -0600,
1,1,0,2,1,VM Stimuli/26M_NC.bmp,nonlure,nontarget,NeutFace,2-Back,None,0,,5,0,5,0,0,1,1,1,,,,,,,,,,,,,,,,,,,,,,,,,,,,,,,,,,,,,,,,,,,,,,,,,,,,,,,,,,,,,,,,,,,,,,,,,,,,,,,,2026-01-20_12h28.15.749,,,,,,,,154.6377191245556,154.64753266703337,155.13345170766115,,,,,,,,,,,,,,,,,,,,,,543211,1,Right,1,2026-01-20_12h28.15.749,EmoNback_Behavioral,,2025.1.1,90.6335517944242,2026-01-20 12h28.33.007337 -0600,
2,2,0,3,1,VM Stimuli/AM228_NC.bmp,target,Target,NeutFace,2-Back,None,0,,5,0,5,0,0,2,2,2,155.1845761667937,,,,,,,,,,,,,,,,,,,,,,,,,,,,,,,,,,,,,,,,,,,,,,,,,,,,,,,,,,,,,,155.13470395747572,,155.1347589166835,155.16910745762289,155.16916195768863,155.17169125005603,155.1845761667937,155.1845761667937,155.1845761667937,155.1845761667937,157.17645999975502,None,0,1,NA,NA,NA,2026-01-20_12h28.15.749,12:31:10,1,1,5,3,VM Stimuli/AM228_NC.bmp,NeutFace,,,,,,,,,,,,,,,,,,,,,,,,,543211,1,Right,1,2026-01-20_12h28.15.749,EmoNback_Behavioral,,2025.1.1,90.6335517944242,2026-01-20 12h28.33.007337 -0600,
2,2,0,3,1,VM Stimuli/AM228_NC.bmp,target,Target,NeutFace,2-Back,None,0,,5,0,5,0,0,2,2,2,,,,,,,,,,,,,,,,,,,,,,,,,,,,,,,,,,,,,,,,,,,,,,,,,,,,,,,,,,,,,,,,,,,,,,,,,,,,,,,,2026-01-20_12h28.15.749,,,,,,,,157.17703383229673,157.1865920415148,157.67418616637588,,,,,,,,,,,,,,,,,,,,,,543211,1,Right,1,2026-01-20_12h28.15.749,EmoNback_Behavioral,,2025.1.1,90.6335517944242,2026-01-20 12h28.33.007337 -0600,
3,3,0,4,1,VM Stimuli/LF227_NC.bmp,nonlure,nontarget,NeutFace,2-Back,None,0,,5,0,5,0,0,3,3,3,157.7214048327878,,,,,,,,,,,,,,,,,,,,,,,,,,,,,,,,,,,,,,,,,,,,,,,,,,,,,,,,,,,,,,157.67509987484664,,157.67514483258128,157.70425504166633,157.70430658292025,157.70874474942684,157.7214048327878,157.7214048327878,157.7214048327878,157.7214048327878,159.71068191714585,None,0,2,NA,NA,NA,2026-01-20_12h28.15.749,12:31:12,1,1,5,4,VM Stimuli/LF227_NC.bmp,NeutFace,,,,,,,,,,,,,,,,,,,,,,,,,543211,1,Right,1,2026-01-20_12h28.15.749,EmoNback_Behavioral,,2025.1.1,90.6335517944242,2026-01-20 12h28.33.007337 -0600,
3,3,0,4,1,VM Stimuli/LF227_NC.bmp,nonlure,nontarget,NeutFace,2-Back,None,0,,5,0,5,0,0,3,3,3,,,,,,,,,,,,,,,,,,,,,,,,,,,,,,,,,,,,,,,,,,,,,,,,,,,,,,,,,,,,,,,,,,,,,,,,,,,,,,,,2026-01-20_12h28.15.749,,,,,,,,159.71137733291835,159.72138975001872,160.2160686245188,,,,,,,,,,,,,,,,,,,,,,543211,1,Right,1,2026-01-20_12h28.15.749,EmoNback_Behavioral,,2025.1.1,90.6335517944242,2026-01-20 12h28.33.007337 -0600,
4,4,0,5,1,VM Stimuli/26M_NC.bmp,lure,nontarget,NeutFace,2-Back,None,0,,5,0,5,0,0,4,4,4,160.26601879205555,,,,,,,,,,,,,,,,,,,,,,,,,,,,,,,,,,,,,,,,,,,,,,,,,,,,,,,,,,,,,,160.2169339163229,,160.21697929129004,160.24982791673392,160.24987441673875,160.25308441650122,160.26601879205555,160.26601879205555,160.26601879205555,160.26601879205555,162.2534854998812,None,0,2,NA,NA,NA,2026-01-20_12h28.15.749,12:31:15,1,1,5,5,VM Stimuli/26M_NC.bmp,NeutFace,,,,,,,,,,,,,,,,,,,,,,,,,543211,1,Right,1,2026-01-20_12h28.15.749,EmoNback_Behavioral,,2025.1.1,90.6335517944242,2026-01-20 12h28.33.007337 -0600,
4,4,0,5,1,VM Stimuli/26M_NC.bmp,lure,nontarget,NeutFace,2-Back,None,0,,5,0,5,0,0,4,4,4,,,,,,,,,,,,,,,,,,,,,,,,,,,,,,,,,,,,,,,,,,,,,,,,,,,,,,,,,,,,,,,,,,,,,,,,,,,,,,,,2026-01-20_12h28.15.749,,,,,,,,162.25413616653532,162.26417304202914,162.74928995780647,,,,,162.7921184580773,,,,,,,,,,,,,,,,,543211,1,Right,1,2026-01-20_12h28.15.749,EmoNback_Behavioral,,2025.1.1,90.6335517944242,2026-01-20 12h28.33.007337 -0600,
5,5,0,6,1,VM Stimuli/LF227_NC.bmp,target,Target,NeutFace,2-Back,None,0,,5,0,5,0,0,5,5,5,162.7921184580773,,,,,,,,,,,,,,,,,,,,,,,,,,,,,,,,,,,,,,,,,,,,,,,,,,,,,,,,,,,,,,162.75016854144633,,162.7502139993012,162.77672879211605,162.7767754578963,162.77921312488616,162.7921184580773,162.7921184580773,162.7921184580773,162.7921184580773,164.78088245727122,None,0,1,NA,NA,NA,2026-01-20_12h28.15.749,12:31:17,1,1,5,6,VM Stimuli/LF227_NC.bmp,NeutFace,,,,,,,,,,,,,,,,,,,,,,,,,543211,1,Right,1,2026-01-20_12h28.15.749,EmoNback_Behavioral,,2025.1.1,90.6335517944242,2026-01-20 12h28.33.007337 -0600,
5,5,0,6,1,VM Stimuli/LF227_NC.bmp,target,Target,NeutFace,2-Back,None,0,,5,0,5,0,0,5,5,5,,,,,,,,,,,,,,,,,,,,,,,,,,,,,,,,,,,,,,,,,,,,,,,,,,,,,,,,,,,,,,,,,,,,,,,,,,,,,,,,2026-01-20_12h28.15.749,,,,,,,,164.78151516709477,164.79109595809132,165.28076954185963,,,,,,,,,,,,,,,,,,,,,,543211,1,Right,1,2026-01-20_12h28.15.749,EmoNback_Behavioral,,2025.1.1,90.6335517944242,2026-01-20 12h28.33.007337 -0600,
6,6,0,7,1,VM Stimuli/AF206_NC.bmp,nonlure,nontarget,NeutFace,2-Back,None,0,,5,0,5,0,0,6,6,6,165.32640695758164,,,,,,,,,,,,,,,,,,,,,,,,,,,,,,,,,,,,,,,,,,,,,,,,,,,,,,,,,,,,,,165.2817622916773,,165.28180920798331,165.3092722920701,165.30933529138565,165.3136800415814,165.32640695758164,165.32640695758164,165.32640695758164,165.32640695758164,167.3202097499743,None,0,2,NA,NA,NA,2026-01-20_12h28.15.749,12:31:20,1,1,5,7,VM Stimuli/AF206_NC.bmp,NeutFace,,,,,,,,,,,,,,,,,,,,,,,,,543211,1,Right,1,2026-01-20_12h28.15.749,EmoNback_Behavioral,,2025.1.1,90.6335517944242,2026-01-20 12h28.33.007337 -0600,
6,6,0,7,1,VM Stimuli/AF206_NC.bmp,nonlure,nontarget,NeutFace,2-Back,None,0,,5,0,5,0,0,6,6,6,,,,,,,,,,,,,,,,,,,,,,,,,,,,,,,,,,,,,,,,,,,,,,,,,,,,,,,,,,,,,,,,,,,,,,,,,,,,,,,,2026-01-20_12h28.15.749,,,,,,,,167.32083241641521,167.3307621665299,167.81586370803416,,,,,,,,,,,,,,,,,,,,,,543211,1,Right,1,2026-01-20_12h28.15.749,EmoNback_Behavioral,,2025.1.1,90.6335517944242,2026-01-20 12h28.33.007337 -0600,
7,7,0,8,1,VM Stimuli/AF206_NC.bmp,lure,nontarget,NeutFace,2-Back,None,0,,5,0,5,0,0,7,7,7,167.85889554210007,,,,,,,,,,,,,,,,,,,,,,,,,,,,,,,,,,,,,,,,,,,,,,,,,,,,,,,,,,,,,,167.81671341694891,,167.81675866711885,167.8437538743019,167.84379866719246,167.84623570740223,167.85889554210007,167.85889554210007,167.85889554210007,167.85889554210007,169.85014712437987,None,0,2,NA,NA,NA,2026-01-20_12h28.15.749,12:31:22,1,1,5,8,VM Stimuli/AF206_NC.bmp,NeutFace,,,,,,,,,,,,,,,,,,,,,,,,,543211,1,Right,1,2026-01-20_12h28.15.749,EmoNback_Behavioral,,2025.1.1,90.6335517944242,2026-01-20 12h28.33.007337 -0600,
7,7,0,8,1,VM Stimuli/AF206_NC.bmp,lure,nontarget,NeutFace,2-Back,None,0,,5,0,5,0,0,7,7,7,,,,,,,,,,,,,,,,,,,,,,,,,,,,,,,,,,,,,,,,,,,,,,,,,,,,,,,,,,,,,,,,,,,,,,,,,,,,,,,,2026-01-20_12h28.15.749,,,,,,,,169.85099529195577,169.86005970742553,170.34731774963439,,,,,,,,,,,,,,,,,,,,,,543211,1,Right,1,2026-01-20_12h28.15.749,EmoNback_Behavioral,,2025.1.1,90.6335517944242,2026-01-20 12h28.33.007337 -0600,
8,8,0,9,1,VM Stimuli/BM03_NC.bmp,nonlure,nontarget,NeutFace,2-Back,None,0,,5,0,5,0,0,8,8,8,170.37809087429196,,,,,,,,,,,,,,,,,,,,,,,,,,,,,,,,,,,,,,,,,,,,,,,,,,,,,,,,,,,,,,170.34872383251786,,170.348784416914,170.36434158310294,170.36437474936247,170.36713329143822,170.37809087429196,170.37809087429196,170.37809087429196,170.37809087429196,172.37174129206687,None,0,2,NA,NA,NA,2026-01-20_12h28.15.749,12:31:25,1,1,5,9,VM Stimuli/BM03_NC.bmp,NeutFace,,,,,,,,,,,,,,,,,,,,,,,,,543211,1,Right,1,2026-01-20_12h28.15.749,EmoNback_Behavioral,,2025.1.1,90.6335517944242,2026-01-20 12h28.33.007337 -0600,
8,8,0,9,1,VM Stimuli/BM03_NC.bmp,nonlure,nontarget,NeutFace,2-Back,None,0,,5,0,5,0,0,8,8,8,,,,,,,,,,,,,,,,,,,,,,,,,,,,,,,,,,,,,,,,,,,,,,,,,,,,,,,,,,,,,,,,,,,,,,,,,,,,,,,,2026-01-20_12h28.15.749,,,,,,,,172.37242862489074,172.38262629136443,172.86998874973506,,,,,,,,,,,,,,,,,,,,,,543211,1,Right,1,2026-01-20_12h28.15.749,EmoNback_Behavioral,,2025.1.1,90.6335517944242,2026-01-20 12h28.33.007337 -0600,
9,9,0,10,1,VM Stimuli/WF012_NC.bmp,nonlure,nontarget,NeutFace,2-Back,None,0,,5,0,5,0,0,9,9,9,172.914901541546,,,,,,,,,,,,,,,,,,,,,,,,,,,,,,,,,,,,,,,,,,,,,,,,,,,,,,,,,,,,,,172.87095700018108,,172.8710035001859,172.89760241657495,172.8976528327912,172.9018092919141,172.914901541546,172.914901541546,172.914901541546,172.914901541546,174.90341379214078,None,0,2,NA,NA,NA,2026-01-20_12h28.15.749,12:31:27,1,1,5,10,VM Stimuli/WF012_NC.bmp,NeutFace,,,,,,,,,,,,,,,,,,,,,,,,,543211,1,Right,1,2026-01-20_12h28.15.749,EmoNback_Behavioral,,2025.1.1,90.6335517944242,2026-01-20 12h28.33.007337 -0600,
9,9,0,10,1,VM Stimuli/WF012_NC.bmp,nonlure,nontarget,NeutFace,2-Back,None,0,,5,0,5,0,0,9,9,9,,,,,,,,,,,,,,,,,,,,,,,,,,,,,,,,,,,,,,,,,,,,,,,,,,,,,,,,,,,,,,,,,,,,,,,,,,,,,,,,2026-01-20_12h28.15.749,,,,,,,,174.90409320779145,174.9139534998685,175.39821166638285,,,,,,,,,,,,,,,,,,,,,,543211,1,Right,1,2026-01-20_12h28.15.749,EmoNback_Behavioral,,2025.1.1,90.6335517944242,2026-01-20 12h28.33.007337 -0600,
0,0,0,1,1,VM Stimuli/BF003_FO.bmp,nonlure,nontarget,NegFace,0-Back,None,0,VM Stimuli/39M_FO.bmp,6,0,6,0,0,0,0,0,175.94498704187572,,,,,,,,,,,,,,,,,,,,,,,,,,,,,,,,,,,,,,,,,,,,,,,,,,,,,,,,,,,175.41528995800763,175.42654941696674,175.91380854137242,175.92399633303285,,175.92404779139906,175.93323612492532,178.41027433238924,178.41638762503862,178.4316431665793,178.4316431665793,178.4316431665793,178.4316431665793,180.42498658318073,None,0,2,NA,NA,NA,2026-01-20_12h28.15.749,12:31:33,1,1,6,1,VM Stimuli/BF003_FO.bmp,NegFace,,,,,,,,,175.4020804995671,175.40216124989092,175.94498704187572,175.94498704187572,175.94498704187572,,,,,,,,,,,,543211,1,Right,1,2026-01-20_12h28.15.749,EmoNback_Behavioral,,2025.1.1,90.6335517944242,2026-01-20 12h28.33.007337 -0600,
0,0,0,1,1,VM Stimuli/BF003_FO.bmp,nonlure,nontarget,NegFace,0-Back,None,0,VM Stimuli/39M_FO.bmp,6,0,6,0,0,0,0,0,,,,,,,,,,,,,,,,,,,,,,,,,,,,,,,,,,,,,,,,,,,,,,,,,,,,,,,,,,,,,,,,,,,,,,,,,,,,,,,,2026-01-20_12h28.15.749,,,,,,,,180.42575858253986,180.43610104173422,180.9259714577347,,,,,,,,,,,,,,,,,,,,,,543211,1,Right,1,2026-01-20_12h28.15.749,EmoNback_Behavioral,,2025.1.1,90.6335517944242,2026-01-20 12h28.33.007337 -0600,
1,1,0,2,1,VM Stimuli/HM05_FO.bmp,nonlure,nontarget,NegFace,0-Back,None,0,VM Stimuli/39M_FO.bmp,6,0,6,0,0,1,1,1,180.9508346663788,,,,,,,,,,,,,,,,,,,,,,,,,,,,,,,,,,,,,,,,,,,,,,,,,,,,,,,,,,,,,,180.92698829155415,,180.9270337074995,180.93041216675192,180.93047170806676,180.9360521249473,180.9508346663788,180.9508346663788,180.9508346663788,180.9508346663788,182.9307643743232,None,0,2,NA,NA,NA,2026-01-20_12h28.15.749,12:31:35,1,1,6,2,VM Stimuli/HM05_FO.bmp,NegFace,,,,,,,,,,,,,,,,,,,,,,,,,543211,1,Right,1,2026-01-20_12h28.15.749,EmoNback_Behavioral,,2025.1.1,90.6335517944242,2026-01-20 12h28.33.007337 -0600,
1,1,0,2,1,VM Stimuli/HM05_FO.bmp,nonlure,nontarget,NegFace,0-Back,None,0,VM Stimuli/39M_FO.bmp,6,0,6,0,0,1,1,1,,,,,,,,,,,,,,,,,,,,,,,,,,,,,,,,,,,,,,,,,,,,,,,,,,,,,,,,,,,,,,,,,,,,,,,,,,,,,,,,2026-01-20_12h28.15.749,,,,,,,,182.93138820771128,182.94114858284593,183.43217208236456,,,,,,,,,,,,,,,,,,,,,,543211,1,Right,1,2026-01-20_12h28.15.749,EmoNback_Behavioral,,2025.1.1,90.6335517944242,2026-01-20 12h28.33.007337 -0600,
2,2,0,3,1,VM Stimuli/HM05_FO.bmp,lure,nontarget,NegFace,0-Back,None,0,VM Stimuli/39M_FO.bmp,6,0,6,0,0,2,2,2,183.45284075010568,,,,,,,,,,,,,,,,,,,,,,,,,,,,,,,,,,,,,,,,,,,,,,,,,,,,,,,,,,,,,,183.43296437431127,,183.43300879187882,183.4358949996531,183.43594229128212,183.43869454134256,183.45284075010568,183.45284075010568,183.45284075010568,183.45284075010568,185.44029862433672,None,0,2,NA,NA,NA,2026-01-20_12h28.15.749,12:31:38,1,1,6,3,VM Stimuli/HM05_FO.bmp,NegFace,,,,,,,,,,,,,,,,,,,,,,,,,543211,1,Right,1,2026-01-20_12h28.15.749,EmoNback_Behavioral,,2025.1.1,90.6335517944242,2026-01-20 12h28.33.007337 -0600,
2,2,0,3,1,VM Stimuli/HM05_FO.bmp,lure,nontarget,NegFace,0-Back,None,0,VM Stimuli/39M_FO.bmp,6,0,6,0,0,2,2,2,,,,,,,,,,,,,,,,,,,,,,,,,,,,,,,,,,,,,,,,,,,,,,,,,,,,,,,,,,,,,,,,,,,,,,,,,,,,,,,,2026-01-20_12h28.15.749,,,,,,,,185.4408772494644,185.46578629128635,185.94039554148912,,,,,,,,,,,,,,,,,,,,,,543211,1,Right,1,2026-01-20_12h28.15.749,EmoNback_Behavioral,,2025.1.1,90.6335517944242,2026-01-20 12h28.33.007337 -0600,
3,3,0,4,1,VM Stimuli/10F_FO.bmp,nonlure,nontarget,NegFace,0-Back,None,0,VM Stimuli/39M_FO.bmp,6,0,6,0,0,3,3,3,185.96481466665864,,,,,,,,,,,,,,,,,,,,,,,,,,,,,,,,,,,,,,,,,,,,,,,,,,,,,,,,,,,,,,185.941321792081,,185.9413647921756,185.9443764993921,185.94443549960852,185.9499095827341,185.96481466665864,185.96481466665864,185.96481466665864,185.96481466665864,187.94558604154736,None,0,2,NA,NA,NA,2026-01-20_12h28.15.749,12:31:40,1,1,6,4,VM Stimuli/10F_FO.bmp,NegFace,,,,,,,,,,,,,,,,,,,,,,,,,543211,1,Right,1,2026-01-20_12h28.15.749,EmoNback_Behavioral,,2025.1.1,90.6335517944242,2026-01-20 12h28.33.007337 -0600,
3,3,0,4,1,VM Stimuli/10F_FO.bmp,nonlure,nontarget,NegFace,0-Back,None,0,VM Stimuli/39M_FO.bmp,6,0,6,0,0,3,3,3,,,,,,,,,,,,,,,,,,,,,,,,,,,,,,,,,,,,,,,,,,,,,,,,,,,,,,,,,,,,,,,,,,,,,,,,,,,,,,,,2026-01-20_12h28.15.749,,,,,,,,187.95037237461656,187.9656369164586,188.4490274162963,,,,,,,,,,,,,,,,,,,,,,543211,1,Right,1,2026-01-20_12h28.15.749,EmoNback_Behavioral,,2025.1.1,90.6335517944242,2026-01-20 12h28.33.007337 -0600,
4,4,0,5,1,VM Stimuli/BF09_FO.bmp,nonlure,nontarget,NegFace,0-Back,None,0,VM Stimuli/39M_FO.bmp,6,0,6,0,0,4,4,4,188.4714490417391,,,,,,,,,,,,,,,,,,,,,,,,,,,,,,,,,,,,,,,,,,,,,,,,,,,,,,,,,,,,,,188.44983075000346,,188.4498660825193,188.45308933313936,188.4531338745728,188.45844962447882,188.4714490417391,188.4714490417391,188.4714490417391,188.4714490417391,190.45835908316076,None,0,2,NA,NA,NA,2026-01-20_12h28.15.749,12:31:43,1,1,6,5,VM Stimuli/BF09_FO.bmp,NegFace,,,,,,,,,,,,,,,,,,,,,,,,,543211,1,Right,1,2026-01-20_12h28.15.749,EmoNback_Behavioral,,2025.1.1,90.6335517944242,2026-01-20 12h28.33.007337 -0600,
4,4,0,5,1,VM Stimuli/BF09_FO.bmp,nonlure,nontarget,NegFace,0-Back,None,0,VM Stimuli/39M_FO.bmp,6,0,6,0,0,4,4,4,,,,,,,,,,,,,,,,,,,,,,,,,,,,,,,,,,,,,,,,,,,,,,,,,,,,,,,,,,,,,,,,,,,,,,,,,,,,,,,,2026-01-20_12h28.15.749,,,,,,,,190.45899291709065,190.46921283286065,190.9654341666028,,,,,,,,,,,,,,,,,,,,,,543211,1,Right,1,2026-01-20_12h28.15.749,EmoNback_Behavioral,,2025.1.1,90.6335517944242,2026-01-20 12h28.33.007337 -0600,
5,5,0,6,1,VM Stimuli/28M_FO.bmp,nonlure,nontarget,NegFace,0-Back,None,0,VM Stimuli/39M_FO.bmp,6,0,6,0,0,5,5,5,190.98998416680843,,,,,,,,,,,,,,,,,,,,,,,,,,,,,,,,,,,,,,,,,,,,,,,,,,,,,,,,,,,,,,190.96632141713053,,190.96636529173702,190.9695167914033,190.9695765413344,190.9753874996677,190.98998416680843,190.98998416680843,190.98998416680843,190.98998416680843,192.98137491662055,None,0,2,NA,NA,NA,2026-01-20_12h28.15.749,12:31:45,1,1,6,6,VM Stimuli/28M_FO.bmp,NegFace,,,,,,,,,,,,,,,,,,,,,,,,,543211,1,Right,1,2026-01-20_12h28.15.749,EmoNback_Behavioral,,2025.1.1,90.6335517944242,2026-01-20 12h28.33.007337 -0600,
5,5,0,6,1,VM Stimuli/28M_FO.bmp,nonlure,nontarget,NegFace,0-Back,None,0,VM Stimuli/39M_FO.bmp,6,0,6,0,0,5,5,5,,,,,,,,,,,,,,,,,,,,,,,,,,,,,,,,,,,,,,,,,,,,,,,,,,,,,,,,,,,,,,,,,,,,,,,,,,,,,,,,2026-01-20_12h28.15.749,,,,,,,,192.98200449999422,192.99126654211432,193.48330170754343,,,,,,,,,,,,,,,,,,,,,,543211,1,Right,1,2026-01-20_12h28.15.749,EmoNback_Behavioral,,2025.1.1,90.6335517944242,2026-01-20 12h28.33.007337 -0600,
6,6,0,7,1,VM Stimuli/BF003_FO.bmp,lure,nontarget,NegFace,0-Back,None,0,VM Stimuli/39M_FO.bmp,6,0,6,0,0,6,6,6,193.50780866667628,,,,,,,,,,,,,,,,,,,,,,,,,,,,,,,,,,,,,,,,,,,,,,,,,,,,,,,,,,,,,,193.48440774995834,,193.48444845806807,193.48894041683525,193.4889842076227,193.49209666717798,193.50780866667628,193.50780866667628,193.50780866667628,193.50780866667628,195.49121141713113,None,0,2,NA,NA,NA,2026-01-20_12h28.15.749,12:31:48,1,1,6,7,VM Stimuli/BF003_FO.bmp,NegFace,,,,,,,,,,,,,,,,,,,,,,,,,543211,1,Right,1,2026-01-20_12h28.15.749,EmoNback_Behavioral,,2025.1.1,90.6335517944242,2026-01-20 12h28.33.007337 -0600,
6,6,0,7,1,VM Stimuli/BF003_FO.bmp,lure,nontarget,NegFace,0-Back,None,0,VM Stimuli/39M_FO.bmp,6,0,6,0,0,6,6,6,,,,,,,,,,,,,,,,,,,,,,,,,,,,,,,,,,,,,,,,,,,,,,,,,,,,,,,,,,,,,,,,,,,,,,,,,,,,,,,,2026-01-20_12h28.15.749,,,,,,,,195.4918507495895,195.50255462434143,195.99014283251017,,,,,,,,,,,,,,,,,,,,,,543211,1,Right,1,2026-01-20_12h28.15.749,EmoNback_Behavioral,,2025.1.1,90.6335517944242,2026-01-20 12h28.33.007337 -0600,
7,7,0,8,1,VM Stimuli/39M_FO.bmp,target,Target,NegFace,0-Back,None,0,VM Stimuli/39M_FO.bmp,6,0,6,0,0,7,7,7,196.0125582916662,,,,,,,,,,,,,,,,,,,,,,,,,,,,,,,,,,,,,,,,,,,,,,,,,,,,,,,,,,,,,,195.99113541655242,,195.99118116684258,195.99428691715002,195.9943487495184,195.99781129136682,196.0125582916662,196.0125582916662,196.0125582916662,196.0125582916662,198.00340208318084,None,0,1,NA,NA,NA,2026-01-20_12h28.15.749,12:31:50,1,1,6,8,VM Stimuli/39M_FO.bmp,NegFace,,,,,,,,,,,,,,,,,,,,,,,,,543211,1,Right,1,2026-01-20_12h28.15.749,EmoNback_Behavioral,,2025.1.1,90.6335517944242,2026-01-20 12h28.33.007337 -0600,
7,7,0,8,1,VM Stimuli/39M_FO.bmp,target,Target,NegFace,0-Back,None,0,VM Stimuli/39M_FO.bmp,6,0,6,0,0,7,7,7,,,,,,,,,,,,,,,,,,,,,,,,,,,,,,,,,,,,,,,,,,,,,,,,,,,,,,,,,,,,,,,,,,,,,,,,,,,,,,,,2026-01-20_12h28.15.749,,,,,,,,198.00402624998242,198.0138303330168,198.49719637446105,,,,,,,,,,,,,,,,,,,,,,543211,1,Right,1,2026-01-20_12h28.15.749,EmoNback_Behavioral,,2025.1.1,90.6335517944242,2026-01-20 12h28.33.007337 -0600,
8,8,0,9,1,VM Stimuli/10F_FO.bmp,lure,nontarget,NegFace,0-Back,None,0,VM Stimuli/39M_FO.bmp,6,0,6,0,0,8,8,8,198.52052933257073,,,,,,,,,,,,,,,,,,,,,,,,,,,,,,,,,,,,,,,,,,,,,,,,,,,,,,,,,,,,,,198.49832824990153,,198.49837479181588,198.50154462456703,198.50160349998623,198.50606658309698,198.52052933257073,198.52052933257073,198.52052933257073,198.52052933257073,200.5094305826351,None,0,2,NA,NA,NA,2026-01-20_12h28.15.749,12:31:53,1,1,6,9,VM Stimuli/10F_FO.bmp,NegFace,,,,,,,,,,,,,,,,,,,,,,,,,543211,1,Right,1,2026-01-20_12h28.15.749,EmoNback_Behavioral,,2025.1.1,90.6335517944242,2026-01-20 12h28.33.007337 -0600,
8,8,0,9,1,VM Stimuli/10F_FO.bmp,lure,nontarget,NegFace,0-Back,None,0,VM Stimuli/39M_FO.bmp,6,0,6,0,0,8,8,8,,,,,,,,,,,,,,,,,,,,,,,,,,,,,,,,,,,,,,,,,,,,,,,,,,,,,,,,,,,,,,,,,,,,,,,,,,,,,,,,2026-01-20_12h28.15.749,,,,,,,,200.51012199930847,200.51993524935097,201.00883150007576,,,,,,,,,,,,,,,,,,,,,,543211,1,Right,1,2026-01-20_12h28.15.749,EmoNback_Behavioral,,2025.1.1,90.6335517944242,2026-01-20 12h28.33.007337 -0600,
9,9,0,10,1,VM Stimuli/39M_FO.bmp,target,Target,NegFace,0-Back,None,0,VM Stimuli/39M_FO.bmp,6,0,6,0,0,9,9,9,201.03017145767808,,,,,,,,,,,,,,,,,,,,,,,,,,,,,,,,,,,,,,,,,,,,,,,,,,,,,,,,,,,,,,201.009796124883,,201.0098392497748,201.0128922080621,201.01294166687876,201.01567933242768,201.03017145767808,201.03017145767808,201.03017145767808,201.03017145767808,203.01375033240765,None,0,1,NA,NA,NA,2026-01-20_12h28.15.749,12:31:56,1,1,6,10,VM Stimuli/39M_FO.bmp,NegFace,,,,,,,,,,,,,,,,,,,,,,,,,543211,1,Right,1,2026-01-20_12h28.15.749,EmoNback_Behavioral,,2025.1.1,90.6335517944242,2026-01-20 12h28.33.007337 -0600,
9,9,0,10,1,VM Stimuli/39M_FO.bmp,target,Target,NegFace,0-Back,None,0,VM Stimuli/39M_FO.bmp,6,0,6,0,0,9,9,9,,,,,,,,,,,,,,,,,,,,,,,,,,,,,,,,,,,,,,,,,,,,,,,,,,,,,,,,,,,,,,,,,,,,,,,,,,,,,,,,2026-01-20_12h28.15.749,,,,,,,,203.01455499976873,203.02406583260745,203.5132088745013,,,,,,,,,,,,,,,,,,,,,,543211,1,Right,1,2026-01-20_12h28.15.749,EmoNback_Behavioral,,2025.1.1,90.6335517944242,2026-01-20 12h28.33.007337 -0600,
0,0,0,1,1,VM Stimuli/PL_007_92026.bmp,nonlure,nontarget,Place,2-Back,None,0,,7,0,7,0,0,0,0,0,204.069969791919,,,,,,,,,,,,,,,,,,,,,,,,,,,,,,,,,,,,,,,,,,,,,,,,,,,,,,,,,,,203.55077349953353,203.56200333312154,204.04866624996066,204.05892074946314,204.069969791919,206.53360320813954,206.5816409578547,206.58168379217386,206.58497833274305,206.5970846666023,206.5970846666023,206.5970846666023,206.5970846666023,208.58310116641223,None,0,2,NA,NA,NA,2026-01-20_12h28.15.749,12:32:01,1,1,7,1,VM Stimuli/PL_007_92026.bmp,Place,,,,,,,,,203.51780595816672,203.51788870804012,,,204.069969791919,,,,,,,,,,,,543211,1,Right,1,2026-01-20_12h28.15.749,EmoNback_Behavioral,,2025.1.1,90.6335517944242,2026-01-20 12h28.33.007337 -0600,
0,0,0,1,1,VM Stimuli/PL_007_92026.bmp,nonlure,nontarget,Place,2-Back,None,0,,7,0,7,0,0,0,0,0,,,,,,,,,,,,,,,,,,,,,,,,,,,,,,,,,,,,,,,,,,,,,,,,,,,,,,,,,,,,,,,,,,,,,,,,,,,,,,,,2026-01-20_12h28.15.749,,,,,,,,208.58378691691905,208.59332812484354,209.07738674990833,,,,,209.11025666631758,,,,,,,,,,,,,,,,,543211,1,Right,1,2026-01-20_12h28.15.749,EmoNback_Behavioral,,2025.1.1,90.6335517944242,2026-01-20 12h28.33.007337 -0600,
1,1,0,2,1,VM Stimuli/PL_007_92026.bmp,lure,nontarget,Place,2-Back,None,0,,7,0,7,0,0,1,1,1,209.11025666631758,,,,,,,,,,,,,,,,,,,,,,,,,,,,,,,,,,,,,,,,,,,,,,,,,,,,,,,,,,,,,,209.07866879180074,,209.0787588749081,209.09601341653615,209.0960561670363,209.0981966247782,209.11025666631758,209.11025666631758,209.11025666631758,209.11025666631758,211.09696708247066,None,0,2,NA,NA,NA,2026-01-20_12h28.15.749,12:32:04,1,1,7,2,VM Stimuli/PL_007_92026.bmp,Place,,,,,,,,,,,,,,,,,,,,,,,,,543211,1,Right,1,2026-01-20_12h28.15.749,EmoNback_Behavioral,,2025.1.1,90.6335517944242,2026-01-20 12h28.33.007337 -0600,
1,1,0,2,1,VM Stimuli/PL_007_92026.bmp,lure,nontarget,Place,2-Back,None,0,,7,0,7,0,0,1,1,1,,,,,,,,,,,,,,,,,,,,,,,,,,,,,,,,,,,,,,,,,,,,,,,,,,,,,,,,,,,,,,,,,,,,,,,,,,,,,,,,2026-01-20_12h28.15.749,,,,,,,,211.09759391658008,211.1073061246425,211.5985664576292,,,,,,,,,,,,,,,,,,,,,,543211,1,Right,1,2026-01-20_12h28.15.749,EmoNback_Behavioral,,2025.1.1,90.6335517944242,2026-01-20 12h28.33.007337 -0600,
2,2,0,3,1,VM Stimuli/PL_010_92038.bmp,nonlure,nontarget,Place,2-Back,None,0,,7,0,7,0,0,2,2,2,211.6593176247552,,,,,,,,,,,,,,,,,,,,,,,,,,,,,,,,,,,,,,,,,,,,,,,,,,,,,,,,,,,,,,211.59946166630834,,211.59950775001198,211.64289295766503,211.64293445739895,211.6472072498873,211.6593176247552,211.6593176247552,211.6593176247552,211.6593176247552,213.64246170781553,None,0,2,NA,NA,NA,2026-01-20_12h28.15.749,12:32:06,1,1,7,3,VM Stimuli/PL_010_92038.bmp,Place,,,,213.65305362455547,213.65305362455547,213.65305362455547,213.65305362455547,,,,,,,,,,,,,,,,,,543211,1,Right,1,2026-01-20_12h28.15.749,EmoNback_Behavioral,,2025.1.1,90.6335517944242,2026-01-20 12h28.33.007337 -0600,
2,2,0,3,1,VM Stimuli/PL_010_92038.bmp,nonlure,nontarget,Place,2-Back,None,0,,7,0,7,0,0,2,2,2,,,,,,,,,,,,,,,,,,,,,,,,,,,,,,,,,,,,,,,,,,,,,,,,,,,,,,,,,,,,,,,,,,,,,,,,,,,,,,,,2026-01-20_12h28.15.749,,,,,,,,213.64314579218626,213.65305362455547,214.14220904186368,,,,,214.19296212494373,,,,,,,,,,,,,,,,,543211,1,Right,1,2026-01-20_12h28.15.749,EmoNback_Behavioral,,2025.1.1,90.6335517944242,2026-01-20 12h28.33.007337 -0600,
3,3,0,4,1,VM Stimuli/PL_009_92037.bmp,nonlure,nontarget,Place,2-Back,None,0,,7,0,7,0,0,3,3,3,214.19296212494373,,,,,,,,,,,,,,,,,,,,,,,,,,,,,,,,,,,,,,,,,,,,,,,,,,,,,,,,,,,,,,214.1431384999305,,214.1431828746572,214.17566545773298,214.1757107079029,214.18033699970692,214.19296212494373,214.19296212494373,214.19296212494373,214.19296212494373,216.18577620759606,None,0,2,NA,NA,NA,2026-01-20_12h28.15.749,12:32:09,1,1,7,4,VM Stimuli/PL_009_92037.bmp,Place,,,,,,,,,,,,,,,,,,,,,,,,,543211,1,Right,1,2026-01-20_12h28.15.749,EmoNback_Behavioral,,2025.1.1,90.6335517944242,2026-01-20 12h28.33.007337 -0600,
3,3,0,4,1,VM Stimuli/PL_009_92037.bmp,nonlure,nontarget,Place,2-Back,None,0,,7,0,7,0,0,3,3,3,,,,,,,,,,,,,,,,,,,,,,,,,,,,,,,,,,,,,,,,,,,,,,,,,,,,,,,,,,,,,,,,,,,,,,,,,,,,,,,,2026-01-20_12h28.15.749,,,,,,,,216.1863521244377,216.1959685413167,216.68581691663712,,,,,,,,,,,,,,,,,,,,,,543211,1,Right,1,2026-01-20_12h28.15.749,EmoNback_Behavioral,,2025.1.1,90.6335517944242,2026-01-20 12h28.33.007337 -0600,
4,4,0,5,1,VM Stimuli/PL_010_92038.bmp,target,Target,Place,2-Back,None,0,,7,0,7,0,0,4,4,4,216.7288474170491,,,,,,,,,,,,,,,,,,,,,,,,,,,,,,,,,,,,,,,,,,,,,,,,,,,,,,,,,,,,,,216.68675895780325,,216.6868063751608,216.71264345757663,216.71268945746124,216.7160422494635,216.7288474170491,216.7288474170491,216.7288474170491,216.7288474170491,218.71907099988312,None,0,1,NA,NA,NA,2026-01-20_12h28.15.749,12:32:11,1,1,7,5,VM Stimuli/PL_010_92038.bmp,Place,,,,,,,,,,,,,,,,,,,,,,,,,543211,1,Right,1,2026-01-20_12h28.15.749,EmoNback_Behavioral,,2025.1.1,90.6335517944242,2026-01-20 12h28.33.007337 -0600,
4,4,0,5,1,VM Stimuli/PL_010_92038.bmp,target,Target,Place,2-Back,None,0,,7,0,7,0,0,4,4,4,,,,,,,,,,,,,,,,,,,,,,,,,,,,,,,,,,,,,,,,,,,,,,,,,,,,,,,,,,,,,,,,,,,,,,,,,,,,,,,,2026-01-20_12h28.15.749,,,,,,,,218.71968549955636,218.72946616634727,219.213997207582,,,,,,,,,,,,,,,,,,,,,,543211,1,Right,1,2026-01-20_12h28.15.749,EmoNback_Behavioral,,2025.1.1,90.6335517944242,2026-01-20 12h28.33.007337 -0600,
5,5,0,6,1,VM Stimuli/PL_009_92037.bmp,target,Target,Place,2-Back,None,0,,7,0,7,0,0,5,5,5,219.26099479198456,,,,,,,,,,,,,,,,,,,,,,,,,,,,,,,,,,,,,,,,,,,,,,,,,,,,,,,,,,,,,,219.21513229142874,,219.21519124973565,219.2441339576617,219.24418670777231,219.24804862495512,219.26099479198456,219.26099479198456,219.26099479198456,219.26099479198456,221.24857141636312,None,0,1,NA,NA,NA,2026-01-20_12h28.15.749,12:32:14,1,1,7,6,VM Stimuli/PL_009_92037.bmp,Place,,,,,,,,,,,,,,,,,,,,,,,,,543211,1,Right,1,2026-01-20_12h28.15.749,EmoNback_Behavioral,,2025.1.1,90.6335517944242,2026-01-20 12h28.33.007337 -0600,
5,5,0,6,1,VM Stimuli/PL_009_92037.bmp,target,Target,Place,2-Back,None,0,,7,0,7,0,0,5,5,5,,,,,,,,,,,,,,,,,,,,,,,,,,,,,,,,,,,,,,,,,,,,,,,,,,,,,,,,,,,,,,,,,,,,,,,,,,,,,,,,2026-01-20_12h28.15.749,,,,,,,,221.24919404182583,221.25993520766497,221.75228845793754,,,,,,,,,,,,,,,,,,,,,,543211,1,Right,1,2026-01-20_12h28.15.749,EmoNback_Behavioral,,2025.1.1,90.6335517944242,2026-01-20 12h28.33.007337 -0600,
6,6,0,7,1,VM Stimuli/PL_008_92033.bmp,nonlure,nontarget,Place,2-Back,None,0,,7,0,7,0,0,6,6,6,221.79722579196095,,,,,,,,,,,,,,,,,,,,,,,,,,,,,,,,,,,,,,,,,,,,,,,,,,,,,,,,,,,,,,221.75321283284575,,221.75326029211283,221.7791457073763,221.77919016685337,221.784320499748,221.79722579196095,221.79722579196095,221.79722579196095,221.79722579196095,223.78596499934793,None,0,2,NA,NA,NA,2026-01-20_12h28.15.749,12:32:16,1,1,7,7,VM Stimuli/PL_008_92033.bmp,Place,,,,,,,,,,,,,,,,,,,,,,,,,543211,1,Right,1,2026-01-20_12h28.15.749,EmoNback_Behavioral,,2025.1.1,90.6335517944242,2026-01-20 12h28.33.007337 -0600,
6,6,0,7,1,VM Stimuli/PL_008_92033.bmp,nonlure,nontarget,Place,2-Back,None,0,,7,0,7,0,0,6,6,6,,,,,,,,,,,,,,,,,,,,,,,,,,,,,,,,,,,,,,,,,,,,,,,,,,,,,,,,,,,,,,,,,,,,,,,,,,,,,,,,2026-01-20_12h28.15.749,,,,,,,,223.78652462456375,223.79627466667444,224.28110941685736,,,,,,,,,,,,,,,,,,,,,,543211,1,Right,1,2026-01-20_12h28.15.749,EmoNback_Behavioral,,2025.1.1,90.6335517944242,2026-01-20 12h28.33.007337 -0600,
7,7,0,8,1,VM Stimuli/PL_012_92047.bmp,nonlure,nontarget,Place,2-Back,None,0,,7,0,7,0,0,7,7,7,224.32881850004196,,,,,,,,,,,,,,,,,,,,,,,,,,,,,,,,,,,,,,,,,,,,,,,,,,,,,,,,,,,,,,224.28222595807165,,224.28228391706944,224.31093529146165,224.31098749954253,224.31558999978006,224.32881850004196,224.32881850004196,224.32881850004196,224.32881850004196,226.31463516689837,None,0,2,NA,NA,NA,2026-01-20_12h28.15.749,12:32:19,1,1,7,8,VM Stimuli/PL_012_92047.bmp,Place,,,,,,,,,,,,,,,,,,,,,,,,,543211,1,Right,1,2026-01-20_12h28.15.749,EmoNback_Behavioral,,2025.1.1,90.6335517944242,2026-01-20 12h28.33.007337 -0600,
7,7,0,8,1,VM Stimuli/PL_012_92047.bmp,nonlure,nontarget,Place,2-Back,None,0,,7,0,7,0,0,7,7,7,,,,,,,,,,,,,,,,,,,,,,,,,,,,,,,,,,,,,,,,,,,,,,,,,,,,,,,,,,,,,,,,,,,,,,,,,,,,,,,,2026-01-20_12h28.15.749,,,,,,,,226.31528245750815,226.32535149995238,226.81483479216695,,,,,,,,,,,,,,,,,,,,,,543211,1,Right,1,2026-01-20_12h28.15.749,EmoNback_Behavioral,,2025.1.1,90.6335517944242,2026-01-20 12h28.33.007337 -0600,
8,8,0,9,1,VM Stimuli/PL_012_92047.bmp,lure,nontarget,Place,2-Back,None,0,,7,0,7,0,0,8,8,8,226.85840362496674,,,,,,,,,,,,,,,,,,,,,,,,,,,,,,,,,,,,,,,,,,,,,,,,,,,,,,,,,,,,,,226.81570162437856,,226.8157489579171,226.84314045775682,226.84319170750678,226.84569712448865,226.85840362496674,226.85840362496674,226.85840362496674,226.85840362496674,228.84642845764756,None,0,2,NA,NA,NA,2026-01-20_12h28.15.749,12:32:21,1,1,7,9,VM Stimuli/PL_012_92047.bmp,Place,,,,,,,,,,,,,,,,,,,,,,,,,543211,1,Right,1,2026-01-20_12h28.15.749,EmoNback_Behavioral,,2025.1.1,90.6335517944242,2026-01-20 12h28.33.007337 -0600,
8,8,0,9,1,VM Stimuli/PL_012_92047.bmp,lure,nontarget,Place,2-Back,None,0,,7,0,7,0,0,8,8,8,,,,,,,,,,,,,,,,,,,,,,,,,,,,,,,,,,,,,,,,,,,,,,,,,,,,,,,,,,,,,,,,,,,,,,,,,,,,,,,,2026-01-20_12h28.15.749,,,,,,,,228.84703500010073,228.85698087513447,229.34804916661233,,,,,,,,,,,,,,,,,,,,,,543211,1,Right,1,2026-01-20_12h28.15.749,EmoNback_Behavioral,,2025.1.1,90.6335517944242,2026-01-20 12h28.33.007337 -0600,
9,9,0,10,1,VM Stimuli/PL_011_92044.bmp,nonlure,nontarget,Place,2-Back,None,0,,7,0,7,0,0,9,9,9,229.39301954209805,,,,,,,,,,,,,,,,,,,,,,,,,,,,,,,,,,,,,,,,,,,,,,,,,,,,,,,,,,,,,,229.34890649933368,,229.34895229153335,229.37578329164535,229.37583641707897,229.3803152916953,229.39301954209805,229.39301954209805,229.39301954209805,229.39301954209805,231.38583004195243,None,0,2,NA,NA,NA,2026-01-20_12h28.15.749,12:32:24,1,1,7,10,VM Stimuli/PL_011_92044.bmp,Place,,,,,,,,,,,,,,,,,,,,,,,,,543211,1,Right,1,2026-01-20_12h28.15.749,EmoNback_Behavioral,,2025.1.1,90.6335517944242,2026-01-20 12h28.33.007337 -0600,
9,9,0,10,1,VM Stimuli/PL_011_92044.bmp,nonlure,nontarget,Place,2-Back,None,0,,7,0,7,0,0,9,9,9,,,,,,,,,,,,,,,,,,,,,,,,,,,,,,,,,,,,,,,,,,,,,,,,,,,,,,,,,,,,,,,,,,,,,,,,,,,,,,,,2026-01-20_12h28.15.749,,,,,,,,231.3864462915808,231.39645508304238,231.8815250415355,,,,,,,,,,,,,,,,,,,,,,543211,1,Right,1,2026-01-20_12h28.15.749,EmoNback_Behavioral,,2025.1.1,90.6335517944242,2026-01-20 12h28.33.007337 -0600,
,,,,,,,,,,,,,,,,,,,,,,,,,,,,,,,,,,,,,,,,,,,,,,,,,,,,,,,,,,,,,,,,,,,,,,,,,,,,,,,,,,,,,,,,,,,,,,,,,,,,2026-01-20_12h28.15.749,,,,,,,,,,,,,,,,231.8852457497269,231.88532374985516,,,,231.88603533245623,231.8995799999684,246.90105724986643,246.88538174983114,,,,,,,,543211,1,Right,1,2026-01-20_12h28.15.749,EmoNback_Behavioral,,2025.1.1,90.6335517944242,2026-01-20 12h28.33.007337 -0600,
,,,,,,,,,,,,,,,,,,,,,,,,,,,,,,,,,,,,,,,,,,,,,,,,,,,,,,,,,,,,,,,,,,,,,,,,,,,,,,,,,,,,,,,,,,,,,,,,,,,,2026-01-20_12h28.15.749,,,,,,,,,,,,,,,,,,,,,,,,,246.88684129156172,246.90105724986643,251.90268624946475,251.88505829218775,,,,543211,1,Right,1,2026-01-20_12h28.15.749,EmoNback_Behavioral,,2025.1.1,90.6335517944242,2026-01-20 12h28.33.007337 -0600,
,,,,,,,,,,,,,,,,,,,,,,,,,,,,,,,,,,,,,,,,,,,,,,,,,,,,,,,,,,,,,,,,,,,,,,,,,,,,,,,,,,,,,,,,,,,,,,,,,,,,,,,,,,,,,,,,,,,,,,,,,,,,,,,,,251.88883937429637,251.90268624946475,251.90268624946475,,,,,,,,,,,
